{
  "resourceType": "Bundle",
  "identifier": {
    "type": {
      "text": "ClinicalDocument VersionNumber"
    },
    "value": "1"
  },
  "type": "message",
  "entry": [ {
    "fullUrl": "urn:uuid:7AEFFED7-78AF-4940-9EE2-5FAA3920ECFE",
    "resource": {
      "resourceType": "MessageHeader",
      "id": "7AEFFED7-78AF-4940-9EE2-5FAA3920ECFE",
      "event": {
        "system": "https://fhir.nhs.uk/STU3/CodeSystem/EventType-1",
        "code": "referral-1",
        "display": "Referral"
      },
      "destination": [ {
        "endpoint": "urn:nhs-uk:addressing:ods:RSHSO14A:DOSServiceID:2000006423"
      } ],
      "timestamp": "2021-04-06T11:33:35.000+00:00",
      "source": {
        "name": "NHS 111 Adaptor",
        "endpoint": "http://localhost:8080/report"
      },
      "reason": {
        "coding": [ {
          "system": "urn:nhs-itk:ns:201005:interaction",
          "code": "urn:nhs-itk:interaction:primaryEmergencyDepartmentRecipientNHS111CDADocument-v2-0"
        } ]
      }
    }
  }, {
    "fullUrl": "urn:uuid:3c5fd144-f9eb-4a8c-a09a-678506b58a2b",
    "resource": {
      "resourceType": "Encounter",
      "id": "3c5fd144-f9eb-4a8c-a09a-678506b58a2b",
      "identifier": [ {
        "system": "2.16.840.1.113883.2.1.3.2.4.18.34",
        "value": "029EE79C-BBD3-478A-93EE-979CB300212E"
      }, {
        "system": "2.16.840.1.113883.2.1.3.2.4.18.35",
        "value": "59132"
      }, {
        "system": "2.16.840.1.113883.2.1.3.2.4.18.49",
        "value": "029EE79C-BBD3-478A-93EE-979CB300212E"
      } ],
      "status": "finished",
      "type": [ {
        "text": "111 Encounter Referral"
      } ],
      "subject": {
        "reference": "urn:uuid:42630117-d85b-4c1a-a18c-3f3e6c68842d"
      },
      "participant": [ {
        "type": [ {
          "coding": [ {
            "system": "http://hl7.org/fhir/ValueSet/encounter-participant-type",
            "code": "PPRF",
            "display": "Author"
          } ]
        } ],
        "individual": {
          "reference": "urn:uuid:c62727b3-9a66-43c8-a885-463121467bd5"
        }
      }, {
        "type": [ {
          "coding": [ {
            "system": "http://hl7.org/fhir/ValueSet/encounter-participant-type",
            "code": "ATND",
            "display": "Responsible Party"
          } ]
        } ],
        "individual": {
          "reference": "urn:uuid:16cdcc7e-0d32-410e-a4b2-780157e1ba39"
        }
      } ],
      "period": {
        "start": "2021-04-06T11:33:35+00:00"
      },
      "location": [ {
        "location": {
          "reference": "urn:uuid:f1eaf679-5485-4bc3-a164-8290fd8f253b"
        },
        "status": "active"
      }, {
        "location": {
          "reference": "urn:uuid:4a865ad8-01c5-41ca-a849-ea9d613bc2d6"
        },
        "status": "completed"
      } ],
      "serviceProvider": {
        "reference": "urn:uuid:17c51e65-d64b-4185-a610-691843c45897"
      }
    }
  }, {
    "fullUrl": "urn:uuid:17c51e65-d64b-4185-a610-691843c45897",
    "resource": {
      "resourceType": "Organization",
      "id": "17c51e65-d64b-4185-a610-691843c45897",
      "active": true,
      "type": [ {
        "text": "CST"
      } ],
      "name": "SCAS111"
    }
  }, {
    "fullUrl": "urn:uuid:c62727b3-9a66-43c8-a885-463121467bd5",
    "resource": {
      "resourceType": "Practitioner",
      "id": "c62727b3-9a66-43c8-a885-463121467bd5",
      "active": true,
      "name": [ {
        "use": "official",
        "family": "McDonald",
        "given": [ "Denzle" ]
      } ]
    }
  }, {
    "fullUrl": "urn:uuid:16cdcc7e-0d32-410e-a4b2-780157e1ba39",
    "resource": {
      "resourceType": "Practitioner",
      "id": "16cdcc7e-0d32-410e-a4b2-780157e1ba39",
      "active": true,
      "name": [ {
        "use": "official",
        "family": "Black",
        "given": [ "John" ]
      } ]
    }
  }, {
    "fullUrl": "urn:uuid:f1eaf679-5485-4bc3-a164-8290fd8f253b",
    "resource": {
      "resourceType": "Location",
      "id": "f1eaf679-5485-4bc3-a164-8290fd8f253b",
      "managingOrganization": {
        "reference": "urn:uuid:7c433f3e-42ec-4a5b-90b2-61b5130af12d"
      }
    }
  }, {
    "fullUrl": "urn:uuid:7c433f3e-42ec-4a5b-90b2-61b5130af12d",
    "resource": {
      "resourceType": "Organization",
      "id": "7c433f3e-42ec-4a5b-90b2-61b5130af12d",
      "identifier": [ {
        "value": "J82633"
      } ],
      "type": [ {
        "text": "GP Practice"
      } ],
      "name": "The Riverside Partnership ( Riverside Kelsey)",
      "telecom": [ {
        "system": "phone",
        "value": "tel:01730892412",
        "use": "work"
      } ],
      "address": [ {
        "use": "work",
        "line": [ "Riverside Kelsey Surgery", "75 Station Road", "Liss", "Hampshire" ],
        "postalCode": "GU33 7AD"
      } ]
    }
  }, {
    "fullUrl": "urn:uuid:4a865ad8-01c5-41ca-a849-ea9d613bc2d6",
    "resource": {
      "resourceType": "Location",
      "id": "4a865ad8-01c5-41ca-a849-ea9d613bc2d6",
      "name": "Incident Location",
      "address": {
        "type": "physical",
        "line": [ "Hampshire Partnership NHS Trust", "Tatchbury Mount Hospital Horseshoe Drive", "Calmore", "Southampton", "Hampshire" ],
        "postalCode": "SO40 2RZ"
      }
    }
  }, {
    "fullUrl": "urn:uuid:42630117-d85b-4c1a-a18c-3f3e6c68842d",
    "resource": {
      "resourceType": "Patient",
      "id": "42630117-d85b-4c1a-a18c-3f3e6c68842d",
      "identifier": [ {
        "extension": [ {
          "url": "https://fhir.hl7.org.uk/STU3/StructureDefinition/Extension-CareConnect-NHSNumberVerificationStatus-1",
          "valueCodeableConcept": {
            "coding": [ {
              "system": "https://fhir.hl7.org.uk/STU3/StructureDefinition/Extension-CareConnect-NHSNumberVerificationStatus-1",
              "code": "01"
            } ]
          }
        } ],
        "system": "https://fhir.nhs.uk/Id/nhs-number",
        "value": "9990004951"
      } ],
      "active": true,
      "name": [ {
        "use": "official",
        "family": "Xxtestpatientdfae",
        "given": [ "Btl-Donotuse" ]
      } ],
      "telecom": [ {
        "system": "phone",
        "value": "tel:07948625625",
        "use": "home"
      }, {
        "system": "phone",
        "value": "tel:07948625625"
      } ],
      "gender": "female",
      "birthDate": "2015-04-01",
      "address": [ {
        "use": "home",
        "line": [ "Hampshire Partnership NHS Trust", "Tatchbury Mount Hospital Horseshoe Drive", "Calmore", "Southampton", "Hampshire" ],
        "postalCode": "SO40 2RZ"
      } ],
      "generalPractitioner": [ {
        "reference": "urn:uuid:1fc56f70-d506-49a1-a161-e3381bf6e7d3"
      } ]
    }
  }, {
    "fullUrl": "urn:uuid:1fc56f70-d506-49a1-a161-e3381bf6e7d3",
    "resource": {
      "resourceType": "Organization",
      "id": "1fc56f70-d506-49a1-a161-e3381bf6e7d3",
      "identifier": [ {
        "value": "J82633"
      } ],
      "type": [ {
        "text": "GP Practice"
      } ],
      "name": "The Riverside Partnership ( Riverside Kelsey)",
      "telecom": [ {
        "system": "phone",
        "value": "tel:01730892412",
        "use": "work"
      } ],
      "address": [ {
        "use": "work",
        "line": [ "Riverside Kelsey Surgery", "75 Station Road", "Liss", "Hampshire" ],
        "postalCode": "GU33 7AD"
      } ]
    }
  }, {
    "fullUrl": "urn:uuid:ef9f3bfd-ac7c-436b-817f-6c2c8461a03d",
    "resource": {
      "resourceType": "HealthcareService",
      "id": "ef9f3bfd-ac7c-436b-817f-6c2c8461a03d",
      "active": true,
      "providedBy": {
        "reference": "urn:uuid:9d8c2495-159d-4057-9473-abb15a078a82"
      },
      "location": [ {
        "reference": "urn:uuid:4d015fae-e885-4c81-955a-0320cf76f02d"
      } ],
      "name": "Urgent Treatment Centre (GP led), Royal South Hants Hospital"
    }
  }, {
    "fullUrl": "urn:uuid:4d015fae-e885-4c81-955a-0320cf76f02d",
    "resource": {
      "resourceType": "Location",
      "id": "4d015fae-e885-4c81-955a-0320cf76f02d",
      "managingOrganization": {
        "reference": "urn:uuid:9d8c2495-159d-4057-9473-abb15a078a82"
      }
    }
  }, {
    "fullUrl": "urn:uuid:9d8c2495-159d-4057-9473-abb15a078a82",
    "resource": {
      "resourceType": "Organization",
      "id": "9d8c2495-159d-4057-9473-abb15a078a82",
      "identifier": [ {
        "value": "RSHSO14A"
      } ],
      "type": [ {
        "coding": [ {
          "code": "PRCP",
          "display": "Urgent Treatment Centre (GP led), Royal South Hants Hospital"
        } ]
      } ],
      "name": "Urgent Treatment Centre (GP led), Royal South Hants Hospital"
    }
  }, {
    "fullUrl": "urn:uuid:bd2009f3-7804-4a34-8898-399dc046efa4",
    "resource": {
      "resourceType": "ReferralRequest",
      "id": "bd2009f3-7804-4a34-8898-399dc046efa4",
      "status": "active",
      "intent": "plan",
      "priority": "routine",
      "subject": {
        "reference": "urn:uuid:42630117-d85b-4c1a-a18c-3f3e6c68842d"
      },
      "context": {
        "reference": "urn:uuid:3c5fd144-f9eb-4a8c-a09a-678506b58a2b"
      },
      "occurrencePeriod": {
        "start": "2021-08-25T00:26:19+00:00",
        "end": "2021-08-25T01:26:19+00:00"
      },
      "authoredOn": "2021-04-06T11:33:27+00:00",
      "requester": {
        "agent": {
          "reference": "urn:uuid:8388a46d-6c1e-4635-889e-c200cd483e54"
        },
        "onBehalfOf": {
          "reference": "urn:uuid:17c51e65-d64b-4185-a610-691843c45897"
        }
      },
      "recipient": [ {
        "reference": "urn:uuid:ef9f3bfd-ac7c-436b-817f-6c2c8461a03d"
      } ],
      "reasonReference": [ {
        "reference": "urn:uuid:e2748513-1821-4077-b2d5-2f7facfb7248"
      } ],
      "supportingInfo": [ {
        "reference": "urn:uuid:2c1989f9-9c97-498e-bb99-30de0c1ae261"
      } ]
    }
  }, {
    "fullUrl": "urn:uuid:2c1989f9-9c97-498e-bb99-30de0c1ae261",
    "resource": {
      "resourceType": "ProcedureRequest",
      "id": "2c1989f9-9c97-498e-bb99-30de0c1ae261",
      "status": "active",
      "intent": "plan",
      "priority": "routine",
      "doNotPerform": false,
      "code": {
        "coding": [ {
          "system": "2.16.840.1.113883.2.1.3.2.4.17.325",
          "code": "Dx06",
          "display": "To contact a local service within 6 hours"
        } ]
      },
      "subject": {
        "reference": "urn:uuid:42630117-d85b-4c1a-a18c-3f3e6c68842d"
      },
      "occurrencePeriod": {
        "start": "2021-08-25T00:26:19+00:00",
        "end": "2021-08-25T01:26:19+00:00"
      },
      "reasonReference": [ {
        "reference": "urn:uuid:e2748513-1821-4077-b2d5-2f7facfb7248"
      } ]
    }
  }, {
    "fullUrl": "urn:uuid:d1a14167-34da-444a-b67f-38647e5588fc",
    "resource": {
      "resourceType": "Composition",
      "id": "d1a14167-34da-444a-b67f-38647e5588fc",
      "identifier": {
        "use": "usual",
        "value": "A8E3FB32-6805-4191-B071-EA540A9318CD"
      },
      "status": "final",
      "type": {
        "coding": [ {
          "system": "http://snomed.info/sct",
          "code": "371531000",
          "display": "Report of clinical encounter (record artifact)"
        } ]
      },
      "subject": {
        "reference": "urn:uuid:42630117-d85b-4c1a-a18c-3f3e6c68842d"
      },
      "encounter": {
        "reference": "urn:uuid:3c5fd144-f9eb-4a8c-a09a-678506b58a2b"
      },
      "date": "2021-08-25T00:26:19+00:00",
      "author": [ {
        "reference": "urn:uuid:c62727b3-9a66-43c8-a885-463121467bd5"
      } ],
      "title": "111 Report",
      "confidentiality": "N",
      "section": [ {
        "section": [ {
          "title": "Patient's Reported Condition",
          "text": {
            "status": "generated",
            "div": "<div xmlns=\"http://www.w3.org/1999/xhtml\">&lt;xml-fragment xmlns:npfitlc=&quot;NPFIT:HL7:Localisation&quot; xmlns:xsi=&quot;http://www.w3.org/2001/XMLSchema-instance&quot;&gt;\n\t\t\t\t\t\t\t\t\t\t\t\t\t&lt;urn:content xmlns:urn=&quot;urn:hl7-org:v3&quot;&gt;Pharmacy ITK Testing&lt;/urn:content&gt;\n\t\t\t\t\t\t\t\t\t\t\t\t\t&lt;urn:br xmlns:urn=&quot;urn:hl7-org:v3&quot;/&gt;\n\t\t\t\t\t\t\t\t\t\t\t\t&lt;/xml-fragment&gt;</div>"
          }
        }, {
          "title": "Pathways Disposition",
          "text": {
            "status": "generated",
            "div": "<div xmlns=\"http://www.w3.org/1999/xhtml\">&lt;xml-fragment xmlns:xsi=&quot;http://www.w3.org/2001/XMLSchema-instance&quot;&gt;To contact a local service within 6 hours (Dx06)                                         &lt;urn:br xmlns:urn=&quot;urn:hl7-org:v3&quot;/&gt;\n\t\t\t\t\t\t\t\t\t\t\t\t\t&lt;urn:br xmlns:urn=&quot;urn:hl7-org:v3&quot;/&gt;                                         Selected service: Urgent Treatment Centre (GP led), Royal South Hant&lt;urn:br xmlns:urn=&quot;urn:hl7-org:v3&quot;/&gt;\n\t\t\t\t\t\t\t\t\t\t\t\t&lt;/xml-fragment&gt;</div>"
          }
        }, {
          "title": "Consultation Summary",
          "text": {
            "status": "generated",
            "div": "<div xmlns=\"http://www.w3.org/1999/xhtml\">&lt;xml-fragment xmlns:xsi=&quot;http://www.w3.org/2001/XMLSchema-instance&quot;&gt;Illness&lt;urn:br xmlns:urn=&quot;urn:hl7-org:v3&quot;/&gt;Warm to touch&lt;urn:br xmlns:urn=&quot;urn:hl7-org:v3&quot;/&gt;Nausea without vomiting&lt;urn:br xmlns:urn=&quot;urn:hl7-org:v3&quot;/&gt;Abdominal pain also present&lt;urn:br xmlns:urn=&quot;urn:hl7-org:v3&quot;/&gt;Moderately severe pain&lt;urn:br xmlns:urn=&quot;urn:hl7-org:v3&quot;/&gt;Flank pain&lt;urn:br xmlns:urn=&quot;urn:hl7-org:v3&quot;/&gt;Fever at time of assessment or in last 12 hours&lt;urn:br xmlns:urn=&quot;urn:hl7-org:v3&quot;/&gt;\n\t\t\t\t\t\t\t\t\t\t\t\t&lt;/xml-fragment&gt;</div>"
          }
        }, {
          "title": "Pathways Assessment",
          "text": {
            "status": "generated",
            "div": "<div xmlns=\"http://www.w3.org/1999/xhtml\">&lt;xml-fragment xmlns:xsi=&quot;http://www.w3.org/2001/XMLSchema-instance&quot;&gt;An injury or health problem was the reason for the contact.&lt;urn:br xmlns:urn=&quot;urn:hl7-org:v3&quot;/&gt;Heavy bleeding had not occurred in the previous 30 minutes.&lt;urn:br xmlns:urn=&quot;urn:hl7-org:v3&quot;/&gt;An illness or health problem was the main problem.&lt;urn:br xmlns:urn=&quot;urn:hl7-org:v3&quot;/&gt;User Comments: Pharmacy ITK Testing&lt;urn:br xmlns:urn=&quot;urn:hl7-org:v3&quot;/&gt;The individual was not fighting for breath.&lt;urn:br xmlns:urn=&quot;urn:hl7-org:v3&quot;/&gt;The main reason for the contact was not an allergic reaction, chest/upper back pain, recent fit/seizure, suicide attempt, new confusion or suspected stroke.&lt;urn:br xmlns:urn=&quot;urn:hl7-org:v3&quot;/&gt;The main reason for contact was not declared diabetic hypo/hyperglycaemia or ICD shock.&lt;urn:br xmlns:urn=&quot;urn:hl7-org:v3&quot;/&gt;The skin on the torso felt normal, warm or hot.&lt;urn:br xmlns:urn=&quot;urn:hl7-org:v3&quot;/&gt;Pathway selected - Vomiting and/or Nausea&lt;urn:br xmlns:urn=&quot;urn:hl7-org:v3&quot;/&gt;The individual had not vomited.&lt;urn:br xmlns:urn=&quot;urn:hl7-org:v3&quot;/&gt;The individual did not also have diarrhoea.&lt;urn:br xmlns:urn=&quot;urn:hl7-org:v3&quot;/&gt;The symptoms did not follow drinking alcohol.&lt;urn:br xmlns:urn=&quot;urn:hl7-org:v3&quot;/&gt;Abdominal pain was also present.&lt;urn:br xmlns:urn=&quot;urn:hl7-org:v3&quot;/&gt;The pain interfered with normal activity.&lt;urn:br xmlns:urn=&quot;urn:hl7-org:v3&quot;/&gt;The individual was able to carry out most or all normal activities.&lt;urn:br xmlns:urn=&quot;urn:hl7-org:v3&quot;/&gt;The individual had not ingested a harmful or toxic substance.&lt;urn:br xmlns:urn=&quot;urn:hl7-org:v3&quot;/&gt;There had been no black and tarry or red/maroon bowel motions.&lt;urn:br xmlns:urn=&quot;urn:hl7-org:v3&quot;/&gt;There was no new or worsening confusion.&lt;urn:br xmlns:urn=&quot;urn:hl7-org:v3&quot;/&gt;Breathing harder or faster when doing nothing was not described.&lt;urn:br xmlns:urn=&quot;urn:hl7-org:v3&quot;/&gt;There was no new shoulder tip pain or pain in the lower right abdomen.&lt;urn:br xmlns:urn=&quot;urn:hl7-org:v3&quot;/&gt;The individual had not been in constant pain for 4 hours or more.&lt;urn:br xmlns:urn=&quot;urn:hl7-org:v3&quot;/&gt;There was no previous history of diabetes.&lt;urn:br xmlns:urn=&quot;urn:hl7-org:v3&quot;/&gt;There was flank pain.&lt;urn:br xmlns:urn=&quot;urn:hl7-org:v3&quot;/&gt;There was a fever at the time of assessment or within the previous 12 hours.&lt;urn:br xmlns:urn=&quot;urn:hl7-org:v3&quot;/&gt;There was no new, widespread, red rash.&lt;urn:br xmlns:urn=&quot;urn:hl7-org:v3&quot;/&gt;Instructions given were: The individual needs to contact a local service within 6 hours.&lt;urn:br xmlns:urn=&quot;urn:hl7-org:v3&quot;/&gt;Directory of Services referral: Urgent Treatment Centre (GP led), Royal South Hants Hospital&lt;urn:br xmlns:urn=&quot;urn:hl7-org:v3&quot;/&gt;\n\t\t\t\t\t\t\t\t\t\t\t\t&lt;/xml-fragment&gt;</div>"
          }
        }, {
          "title": "Advice Given",
          "text": {
            "status": "generated",
            "div": "<div xmlns=\"http://www.w3.org/1999/xhtml\">&lt;xml-fragment xmlns:xsi=&quot;http://www.w3.org/2001/XMLSchema-instance&quot;&gt;I will arrange for a clinician to contact the individual. I need to ask some further questions in order to determine the best way to do this.&lt;urn:br xmlns:urn=&quot;urn:hl7-org:v3&quot;/&gt;If there are any new symptoms, or if the condition gets worse, changes or you have any other concerns, call us back.&lt;urn:br xmlns:urn=&quot;urn:hl7-org:v3&quot;/&gt;\n\t\t\t\t\t\t\t\t\t\t\t\t\t&lt;urn:br xmlns:urn=&quot;urn:hl7-org:v3&quot;/&gt;\n\t\t\t\t\t\t\t\t\t\t\t\t&lt;/xml-fragment&gt;</div>"
          }
        }, {
          "title": "Information And Advice Given",
          "text": {
            "status": "generated",
            "div": "<div xmlns=\"http://www.w3.org/1999/xhtml\">&lt;xml-fragment xmlns:npfitlc=&quot;NPFIT:HL7:Localisation&quot; xmlns:xsi=&quot;http://www.w3.org/2001/XMLSchema-instance&quot;/&gt;</div>"
          }
        }, {
          "title": "Disposition",
          "text": {
            "status": "generated",
            "div": "<div xmlns=\"http://www.w3.org/1999/xhtml\">&lt;xml-fragment xmlns:npfitlc=&quot;NPFIT:HL7:Localisation&quot; xmlns:xsi=&quot;http://www.w3.org/2001/XMLSchema-instance&quot;&gt;\n\t\t\t\t\t\t\t\t\t\t\t\t\t&lt;urn:content xmlns:urn=&quot;urn:hl7-org:v3&quot;&gt;To contact a local service within 6 hours&lt;urn:br/&gt;\n\t\t\t\t\t\t\t\t\t\t\t\t\t&lt;/urn:content&gt;\n\t\t\t\t\t\t\t\t\t\t\t\t\t&lt;urn:br xmlns:urn=&quot;urn:hl7-org:v3&quot;/&gt;\n\t\t\t\t\t\t\t\t\t\t\t\t\t&lt;urn:br xmlns:urn=&quot;urn:hl7-org:v3&quot;/&gt;\n\t\t\t\t\t\t\t\t\t\t\t\t&lt;/xml-fragment&gt;</div>"
          }
        } ]
      }, {
        "title": "CarePlan",
        "entry": [ {
          "reference": "urn:uuid:31c6541c-6af7-4e98-b38f-ac501f194100"
        } ]
      }, {
        "title": "ReferralRequest",
        "entry": [ {
          "reference": "urn:uuid:bd2009f3-7804-4a34-8898-399dc046efa4"
        } ]
      }, {
        "title": "QuestionnaireResponse",
        "entry": [ {
          "reference": "urn:uuid:583bea80-657c-4651-a94e-8c035de4b2f3"
        } ]
      }, {
        "title": "QuestionnaireResponse",
        "entry": [ {
          "reference": "urn:uuid:8dc3875a-4501-4ba5-a486-2f7ba3976df4"
        } ]
      }, {
        "title": "QuestionnaireResponse",
        "entry": [ {
          "reference": "urn:uuid:2abe90e6-92c8-416a-9ded-5abc3c08a714"
        } ]
      }, {
        "title": "QuestionnaireResponse",
        "entry": [ {
          "reference": "urn:uuid:9d7fa278-ec2c-4b9c-bf4e-f3ae64522429"
        } ]
      }, {
        "title": "QuestionnaireResponse",
        "entry": [ {
          "reference": "urn:uuid:63bf97ed-0d4b-4e44-a8ed-7a15cab511c3"
        } ]
      }, {
        "title": "QuestionnaireResponse",
        "entry": [ {
          "reference": "urn:uuid:dbd352e1-daee-4815-abc5-8cf882c69bd0"
        } ]
      }, {
        "title": "QuestionnaireResponse",
        "entry": [ {
          "reference": "urn:uuid:6318bc46-b2ea-4051-b2a4-a09c632f165f"
        } ]
      }, {
        "title": "QuestionnaireResponse",
        "entry": [ {
          "reference": "urn:uuid:834f4c54-c945-4f1e-9b8b-1c0921bfe0d8"
        } ]
      }, {
        "title": "QuestionnaireResponse",
        "entry": [ {
          "reference": "urn:uuid:2379b88a-7d94-42d2-b529-efa1856bb4a5"
        } ]
      }, {
        "title": "QuestionnaireResponse",
        "entry": [ {
          "reference": "urn:uuid:afd44e72-03ef-4068-9ad7-bf39df9bbadb"
        } ]
      }, {
        "title": "QuestionnaireResponse",
        "entry": [ {
          "reference": "urn:uuid:d75b3ed7-ad79-4806-9c77-09b3602cdd28"
        } ]
      }, {
        "title": "QuestionnaireResponse",
        "entry": [ {
          "reference": "urn:uuid:4533a105-dade-459d-873a-2640b56e64e8"
        } ]
      }, {
        "title": "QuestionnaireResponse",
        "entry": [ {
          "reference": "urn:uuid:359cbff7-35cc-4c39-8669-a8f12f19b104"
        } ]
      }, {
        "title": "QuestionnaireResponse",
        "entry": [ {
          "reference": "urn:uuid:da7b1c8a-0b81-4593-a002-3cc1b0a787a8"
        } ]
      }, {
        "title": "QuestionnaireResponse",
        "entry": [ {
          "reference": "urn:uuid:e1e990ab-5d3e-4a92-a246-929b04af14b2"
        } ]
      }, {
        "title": "QuestionnaireResponse",
        "entry": [ {
          "reference": "urn:uuid:6ed7c8c8-e058-4c6b-a1a3-9bc0836ce83f"
        } ]
      }, {
        "title": "QuestionnaireResponse",
        "entry": [ {
          "reference": "urn:uuid:2d92827c-fc06-4ab0-82b5-e6dc43298957"
        } ]
      }, {
        "title": "QuestionnaireResponse",
        "entry": [ {
          "reference": "urn:uuid:8956d6d9-674e-4145-8a8d-017d078f8d79"
        } ]
      }, {
        "title": "QuestionnaireResponse",
        "entry": [ {
          "reference": "urn:uuid:5642d2b8-798e-4dbd-bac8-e28c8911088d"
        } ]
      }, {
        "title": "QuestionnaireResponse",
        "entry": [ {
          "reference": "urn:uuid:229503d0-dd2b-4358-99ae-5844c5d6a306"
        } ]
      }, {
        "title": "QuestionnaireResponse",
        "entry": [ {
          "reference": "urn:uuid:2a4c3af6-ea3f-4dbe-92ea-afdfea240b05"
        } ]
      }, {
        "title": "QuestionnaireResponse",
        "entry": [ {
          "reference": "urn:uuid:ebf47ec3-e638-499a-8057-517044c3a2b3"
        } ]
      }, {
        "title": "QuestionnaireResponse",
        "entry": [ {
          "reference": "urn:uuid:1f8ef931-1a26-4278-b08b-e6a456d7903c"
        } ]
      }, {
        "title": "QuestionnaireResponse",
        "entry": [ {
          "reference": "urn:uuid:3a66e2bf-22b7-45e7-bb9e-98a103a3d4f2"
        } ]
      }, {
        "title": "QuestionnaireResponse",
        "entry": [ {
          "reference": "urn:uuid:9dea13e0-a83f-407f-8d33-d72aa85bb5bf"
        } ]
      }, {
        "title": "QuestionnaireResponse",
        "entry": [ {
          "reference": "urn:uuid:38143f71-3171-4410-99e7-fa4ed34f1e54"
        } ]
      }, {
        "title": "QuestionnaireResponse",
        "entry": [ {
          "reference": "urn:uuid:1c528af5-bca2-4dab-8361-0a55575a6c8a"
        } ]
      }, {
        "title": "QuestionnaireResponse",
        "entry": [ {
          "reference": "urn:uuid:a243381a-4ffa-42d5-9b55-421850d4996c"
        } ]
      }, {
        "title": "QuestionnaireResponse",
        "entry": [ {
          "reference": "urn:uuid:eaa18860-f07b-4390-9ab7-55d9f9dca1bc"
        } ]
      }, {
        "title": "QuestionnaireResponse",
        "entry": [ {
          "reference": "urn:uuid:347e20e9-7d6b-4b3e-94d1-b2931158060b"
        } ]
      }, {
        "title": "QuestionnaireResponse",
        "entry": [ {
          "reference": "urn:uuid:b45cce22-abdf-404b-94a7-136124b570aa"
        } ]
      }, {
        "title": "QuestionnaireResponse",
        "entry": [ {
          "reference": "urn:uuid:4187b498-b6e9-4391-8710-14de3341e50d"
        } ]
      }, {
        "title": "QuestionnaireResponse",
        "entry": [ {
          "reference": "urn:uuid:1459df44-3127-4efd-911e-9c4ae9fe2c16"
        } ]
      }, {
        "title": "QuestionnaireResponse",
        "entry": [ {
          "reference": "urn:uuid:5f47cad7-620e-4dbd-9736-41b556211a91"
        } ]
      }, {
        "title": "QuestionnaireResponse",
        "entry": [ {
          "reference": "urn:uuid:6d6c5f38-23de-4410-9bef-4e6943321307"
        } ]
      }, {
        "title": "QuestionnaireResponse",
        "entry": [ {
          "reference": "urn:uuid:3c4aa80f-3b84-4d83-b0be-3db02820f110"
        } ]
      }, {
        "title": "QuestionnaireResponse",
        "entry": [ {
          "reference": "urn:uuid:69ed69e7-f5c3-4bfc-be5c-0cf10b79c436"
        } ]
      }, {
        "title": "QuestionnaireResponse",
        "entry": [ {
          "reference": "urn:uuid:39a08a32-d788-4893-9e1c-916466acdc1c"
        } ]
      }, {
        "title": "QuestionnaireResponse",
        "entry": [ {
          "reference": "urn:uuid:3e071ef1-a9bb-48b3-81f1-9a603c354d9b"
        } ]
      }, {
        "title": "QuestionnaireResponse",
        "entry": [ {
          "reference": "urn:uuid:c9abcb21-fb80-499c-b2c8-2a17fc8cef68"
        } ]
      }, {
        "title": "QuestionnaireResponse",
        "entry": [ {
          "reference": "urn:uuid:2a9ae99d-7479-4127-b495-ac9897afa78e"
        } ]
      }, {
        "title": "QuestionnaireResponse",
        "entry": [ {
          "reference": "urn:uuid:73f034aa-69b0-4233-8f76-14301646b45e"
        } ]
      }, {
        "title": "QuestionnaireResponse",
        "entry": [ {
          "reference": "urn:uuid:6c126cbb-d7af-4e76-9214-38ae4909741e"
        } ]
      }, {
        "title": "QuestionnaireResponse",
        "entry": [ {
          "reference": "urn:uuid:a0c1b729-000b-44bc-a7c8-da6b1db1c10a"
        } ]
      }, {
        "title": "QuestionnaireResponse",
        "entry": [ {
          "reference": "urn:uuid:636802a3-2eca-4a7a-9640-557f94b951d6"
        } ]
      }, {
        "title": "QuestionnaireResponse",
        "entry": [ {
          "reference": "urn:uuid:82082d6b-1bad-4384-8cbf-6f96d84fb0bd"
        } ]
      }, {
        "title": "QuestionnaireResponse",
        "entry": [ {
          "reference": "urn:uuid:9dcb3fb1-9bf3-4762-8f6e-1c0d1cc4d631"
        } ]
      }, {
        "title": "QuestionnaireResponse",
        "entry": [ {
          "reference": "urn:uuid:dbc1cd6a-ea72-4839-a18b-3a2f6a30cc27"
        } ]
      }, {
        "title": "QuestionnaireResponse",
        "entry": [ {
          "reference": "urn:uuid:e6d5919a-0664-4b75-b754-93a66e60fd7a"
        } ]
      }, {
        "title": "QuestionnaireResponse",
        "entry": [ {
          "reference": "urn:uuid:3bfa3a9f-ccaf-44df-9a4b-1ee721650936"
        } ]
      }, {
        "title": "QuestionnaireResponse",
        "entry": [ {
          "reference": "urn:uuid:8c524a2c-5fb4-4f80-a445-c0e7dc6640f3"
        } ]
      }, {
        "title": "QuestionnaireResponse",
        "entry": [ {
          "reference": "urn:uuid:fa9f92dd-a200-4112-9aab-3c6f61a47d7a"
        } ]
      }, {
        "title": "QuestionnaireResponse",
        "entry": [ {
          "reference": "urn:uuid:e71c5307-780f-46bf-a4d2-c3de2fceef14"
        } ]
      }, {
        "title": "QuestionnaireResponse",
        "entry": [ {
          "reference": "urn:uuid:240e0e6a-5cf0-4076-a8a4-58261f4593a6"
        } ]
      }, {
        "title": "QuestionnaireResponse",
        "entry": [ {
          "reference": "urn:uuid:26d8ff84-a925-4057-81bb-4e4d1a3ef41e"
        } ]
      }, {
        "title": "QuestionnaireResponse",
        "entry": [ {
          "reference": "urn:uuid:2b84807d-f887-4209-a362-80968928e856"
        } ]
      }, {
        "title": "QuestionnaireResponse",
        "entry": [ {
          "reference": "urn:uuid:5d721ff8-659d-4a62-8398-2f799c44f308"
        } ]
      }, {
        "title": "QuestionnaireResponse",
        "entry": [ {
          "reference": "urn:uuid:964827c6-80db-4cc1-9abc-34ddd0eab713"
        } ]
      }, {
        "title": "QuestionnaireResponse",
        "entry": [ {
          "reference": "urn:uuid:c67e95a2-c128-4dc3-98a1-20e0d365c838"
        } ]
      }, {
        "title": "QuestionnaireResponse",
        "entry": [ {
          "reference": "urn:uuid:2890699e-42db-4006-affe-6e765d86d621"
        } ]
      }, {
        "title": "QuestionnaireResponse",
        "entry": [ {
          "reference": "urn:uuid:a3ba4c2f-d52b-4bd3-9364-0e36c9c86c26"
        } ]
      }, {
        "title": "QuestionnaireResponse",
        "entry": [ {
          "reference": "urn:uuid:6fbe1a99-5e0c-49c1-b1b8-2ce7c10e45c6"
        } ]
      }, {
        "title": "QuestionnaireResponse",
        "entry": [ {
          "reference": "urn:uuid:ce9c5735-bb54-47d6-b118-a72ba6bf4a26"
        } ]
      }, {
        "title": "QuestionnaireResponse",
        "entry": [ {
          "reference": "urn:uuid:6f81fc91-acc0-43e5-b9ea-2a2d3a91b310"
        } ]
      }, {
        "title": "QuestionnaireResponse",
        "entry": [ {
          "reference": "urn:uuid:8fc2cdc0-2d4c-4dc8-8007-1dd8c03f3cdb"
        } ]
      }, {
        "title": "QuestionnaireResponse",
        "entry": [ {
          "reference": "urn:uuid:f2f12ce9-4419-4df3-85bd-62c76ed92390"
        } ]
      }, {
        "title": "QuestionnaireResponse",
        "entry": [ {
          "reference": "urn:uuid:7aeb092c-1ce9-4d8f-994b-47c51e77ce42"
        } ]
      }, {
        "title": "QuestionnaireResponse",
        "entry": [ {
          "reference": "urn:uuid:e4a27faa-0078-4a26-bcf3-7e7b9a404cff"
        } ]
      }, {
        "title": "QuestionnaireResponse",
        "entry": [ {
          "reference": "urn:uuid:d26a5fa6-5b42-4718-8f2d-5383b746d294"
        } ]
      }, {
        "title": "QuestionnaireResponse",
        "entry": [ {
          "reference": "urn:uuid:157bb080-40db-4b9c-803d-41bbf1bd4fe2"
        } ]
      }, {
        "title": "QuestionnaireResponse",
        "entry": [ {
          "reference": "urn:uuid:6a1d653e-a910-4599-8f99-6b570bdf44ff"
        } ]
      }, {
        "title": "QuestionnaireResponse",
        "entry": [ {
          "reference": "urn:uuid:1896be97-340f-4cc1-aff5-6a8335755ee0"
        } ]
      }, {
        "title": "QuestionnaireResponse",
        "entry": [ {
          "reference": "urn:uuid:7487dea8-3878-404a-a7e8-69de4356a9d3"
        } ]
      } ]
    }
  }, {
    "fullUrl": "urn:uuid:31c6541c-6af7-4e98-b38f-ac501f194100",
    "resource": {
      "resourceType": "CarePlan",
      "id": "31c6541c-6af7-4e98-b38f-ac501f194100",
      "status": "completed",
      "intent": "plan",
      "title": "Information And Advice Given",
      "subject": {
        "reference": "urn:uuid:42630117-d85b-4c1a-a18c-3f3e6c68842d"
      },
      "context": {
        "reference": "urn:uuid:3c5fd144-f9eb-4a8c-a09a-678506b58a2b"
      },
      "period": {
        "start": "2021-04-06T11:33:35+00:00"
      },
      "author": [ {
        "reference": "urn:uuid:7c433f3e-42ec-4a5b-90b2-61b5130af12d"
      } ],
      "addresses": [ {
        "reference": "urn:uuid:e2748513-1821-4077-b2d5-2f7facfb7248"
      } ]
    }
  }, {
    "fullUrl": "urn:uuid:3a567d82-12ee-4d68-b6f8-ccb5659a2031",
    "resource": {
      "resourceType": "Consent",
      "id": "3a567d82-12ee-4d68-b6f8-ccb5659a2031",
      "identifier": {
        "use": "usual",
        "value": "A8E3FB32-6805-4191-B071-EA540A9318CD"
      },
      "status": "active",
      "patient": {
        "reference": "urn:uuid:42630117-d85b-4c1a-a18c-3f3e6c68842d"
      },
      "period": {
        "start": "2021-04-06T11:33:35+00:00"
      },
      "consentingParty": [ {
        "reference": "urn:uuid:42630117-d85b-4c1a-a18c-3f3e6c68842d"
      } ],
      "action": [ {
        "coding": [ {
          "system": "http://snomed.info/sct",
          "code": "425691002",
          "display": "Consent given for electronic record sharing"
        } ],
        "text": "Consent given for electronic record sharing"
      } ],
      "organization": [ {
        "reference": "urn:uuid:17c51e65-d64b-4185-a610-691843c45897"
      } ],
      "policyRule": "http://hl7.org/fhir/ConsentPolicy/opt-out",
      "data": [ {
        "meaning": "related",
        "reference": {
          "reference": "urn:uuid:3c5fd144-f9eb-4a8c-a09a-678506b58a2b"
        }
      } ]
    }
  }, {
    "fullUrl": "urn:uuid:e2748513-1821-4077-b2d5-2f7facfb7248",
    "resource": {
      "resourceType": "Condition",
      "id": "e2748513-1821-4077-b2d5-2f7facfb7248",
      "clinicalStatus": "active",
      "verificationStatus": "unknown",
      "subject": {
        "reference": "urn:uuid:42630117-d85b-4c1a-a18c-3f3e6c68842d"
      },
      "context": {
        "reference": "urn:uuid:3c5fd144-f9eb-4a8c-a09a-678506b58a2b"
      },
      "evidence": [ {
        "detail": [ {
          "reference": "urn:uuid:583bea80-657c-4651-a94e-8c035de4b2f3"
        } ]
      }, {
        "detail": [ {
          "reference": "urn:uuid:8dc3875a-4501-4ba5-a486-2f7ba3976df4"
        } ]
      }, {
        "detail": [ {
          "reference": "urn:uuid:2abe90e6-92c8-416a-9ded-5abc3c08a714"
        } ]
      }, {
        "detail": [ {
          "reference": "urn:uuid:9d7fa278-ec2c-4b9c-bf4e-f3ae64522429"
        } ]
      }, {
        "detail": [ {
          "reference": "urn:uuid:63bf97ed-0d4b-4e44-a8ed-7a15cab511c3"
        } ]
      }, {
        "detail": [ {
          "reference": "urn:uuid:dbd352e1-daee-4815-abc5-8cf882c69bd0"
        } ]
      }, {
        "detail": [ {
          "reference": "urn:uuid:6318bc46-b2ea-4051-b2a4-a09c632f165f"
        } ]
      }, {
        "detail": [ {
          "reference": "urn:uuid:834f4c54-c945-4f1e-9b8b-1c0921bfe0d8"
        } ]
      }, {
        "detail": [ {
          "reference": "urn:uuid:2379b88a-7d94-42d2-b529-efa1856bb4a5"
        } ]
      }, {
        "detail": [ {
          "reference": "urn:uuid:afd44e72-03ef-4068-9ad7-bf39df9bbadb"
        } ]
      }, {
        "detail": [ {
          "reference": "urn:uuid:d75b3ed7-ad79-4806-9c77-09b3602cdd28"
        } ]
      }, {
        "detail": [ {
          "reference": "urn:uuid:4533a105-dade-459d-873a-2640b56e64e8"
        } ]
      }, {
        "detail": [ {
          "reference": "urn:uuid:359cbff7-35cc-4c39-8669-a8f12f19b104"
        } ]
      }, {
        "detail": [ {
          "reference": "urn:uuid:da7b1c8a-0b81-4593-a002-3cc1b0a787a8"
        } ]
      }, {
        "detail": [ {
          "reference": "urn:uuid:e1e990ab-5d3e-4a92-a246-929b04af14b2"
        } ]
      }, {
        "detail": [ {
          "reference": "urn:uuid:6ed7c8c8-e058-4c6b-a1a3-9bc0836ce83f"
        } ]
      }, {
        "detail": [ {
          "reference": "urn:uuid:2d92827c-fc06-4ab0-82b5-e6dc43298957"
        } ]
      }, {
        "detail": [ {
          "reference": "urn:uuid:8956d6d9-674e-4145-8a8d-017d078f8d79"
        } ]
      }, {
        "detail": [ {
          "reference": "urn:uuid:5642d2b8-798e-4dbd-bac8-e28c8911088d"
        } ]
      }, {
        "detail": [ {
          "reference": "urn:uuid:229503d0-dd2b-4358-99ae-5844c5d6a306"
        } ]
      }, {
        "detail": [ {
          "reference": "urn:uuid:2a4c3af6-ea3f-4dbe-92ea-afdfea240b05"
        } ]
      }, {
        "detail": [ {
          "reference": "urn:uuid:ebf47ec3-e638-499a-8057-517044c3a2b3"
        } ]
      }, {
        "detail": [ {
          "reference": "urn:uuid:1f8ef931-1a26-4278-b08b-e6a456d7903c"
        } ]
      }, {
        "detail": [ {
          "reference": "urn:uuid:3a66e2bf-22b7-45e7-bb9e-98a103a3d4f2"
        } ]
      }, {
        "detail": [ {
          "reference": "urn:uuid:9dea13e0-a83f-407f-8d33-d72aa85bb5bf"
        } ]
      }, {
        "detail": [ {
          "reference": "urn:uuid:38143f71-3171-4410-99e7-fa4ed34f1e54"
        } ]
      }, {
        "detail": [ {
          "reference": "urn:uuid:1c528af5-bca2-4dab-8361-0a55575a6c8a"
        } ]
      }, {
        "detail": [ {
          "reference": "urn:uuid:a243381a-4ffa-42d5-9b55-421850d4996c"
        } ]
      }, {
        "detail": [ {
          "reference": "urn:uuid:eaa18860-f07b-4390-9ab7-55d9f9dca1bc"
        } ]
      }, {
        "detail": [ {
          "reference": "urn:uuid:347e20e9-7d6b-4b3e-94d1-b2931158060b"
        } ]
      }, {
        "detail": [ {
          "reference": "urn:uuid:b45cce22-abdf-404b-94a7-136124b570aa"
        } ]
      }, {
        "detail": [ {
          "reference": "urn:uuid:4187b498-b6e9-4391-8710-14de3341e50d"
        } ]
      }, {
        "detail": [ {
          "reference": "urn:uuid:1459df44-3127-4efd-911e-9c4ae9fe2c16"
        } ]
      }, {
        "detail": [ {
          "reference": "urn:uuid:5f47cad7-620e-4dbd-9736-41b556211a91"
        } ]
      }, {
        "detail": [ {
          "reference": "urn:uuid:6d6c5f38-23de-4410-9bef-4e6943321307"
        } ]
      }, {
        "detail": [ {
          "reference": "urn:uuid:3c4aa80f-3b84-4d83-b0be-3db02820f110"
        } ]
      }, {
        "detail": [ {
          "reference": "urn:uuid:69ed69e7-f5c3-4bfc-be5c-0cf10b79c436"
        } ]
      }, {
        "detail": [ {
          "reference": "urn:uuid:39a08a32-d788-4893-9e1c-916466acdc1c"
        } ]
      }, {
        "detail": [ {
          "reference": "urn:uuid:3e071ef1-a9bb-48b3-81f1-9a603c354d9b"
        } ]
      }, {
        "detail": [ {
          "reference": "urn:uuid:c9abcb21-fb80-499c-b2c8-2a17fc8cef68"
        } ]
      }, {
        "detail": [ {
          "reference": "urn:uuid:2a9ae99d-7479-4127-b495-ac9897afa78e"
        } ]
      }, {
        "detail": [ {
          "reference": "urn:uuid:73f034aa-69b0-4233-8f76-14301646b45e"
        } ]
      }, {
        "detail": [ {
          "reference": "urn:uuid:6c126cbb-d7af-4e76-9214-38ae4909741e"
        } ]
      }, {
        "detail": [ {
          "reference": "urn:uuid:a0c1b729-000b-44bc-a7c8-da6b1db1c10a"
        } ]
      }, {
        "detail": [ {
          "reference": "urn:uuid:636802a3-2eca-4a7a-9640-557f94b951d6"
        } ]
      }, {
        "detail": [ {
          "reference": "urn:uuid:82082d6b-1bad-4384-8cbf-6f96d84fb0bd"
        } ]
      }, {
        "detail": [ {
          "reference": "urn:uuid:9dcb3fb1-9bf3-4762-8f6e-1c0d1cc4d631"
        } ]
      }, {
        "detail": [ {
          "reference": "urn:uuid:dbc1cd6a-ea72-4839-a18b-3a2f6a30cc27"
        } ]
      }, {
        "detail": [ {
          "reference": "urn:uuid:e6d5919a-0664-4b75-b754-93a66e60fd7a"
        } ]
      }, {
        "detail": [ {
          "reference": "urn:uuid:3bfa3a9f-ccaf-44df-9a4b-1ee721650936"
        } ]
      }, {
        "detail": [ {
          "reference": "urn:uuid:8c524a2c-5fb4-4f80-a445-c0e7dc6640f3"
        } ]
      }, {
        "detail": [ {
          "reference": "urn:uuid:fa9f92dd-a200-4112-9aab-3c6f61a47d7a"
        } ]
      }, {
        "detail": [ {
          "reference": "urn:uuid:e71c5307-780f-46bf-a4d2-c3de2fceef14"
        } ]
      }, {
        "detail": [ {
          "reference": "urn:uuid:240e0e6a-5cf0-4076-a8a4-58261f4593a6"
        } ]
      }, {
        "detail": [ {
          "reference": "urn:uuid:26d8ff84-a925-4057-81bb-4e4d1a3ef41e"
        } ]
      }, {
        "detail": [ {
          "reference": "urn:uuid:2b84807d-f887-4209-a362-80968928e856"
        } ]
      }, {
        "detail": [ {
          "reference": "urn:uuid:5d721ff8-659d-4a62-8398-2f799c44f308"
        } ]
      }, {
        "detail": [ {
          "reference": "urn:uuid:964827c6-80db-4cc1-9abc-34ddd0eab713"
        } ]
      }, {
        "detail": [ {
          "reference": "urn:uuid:c67e95a2-c128-4dc3-98a1-20e0d365c838"
        } ]
      }, {
        "detail": [ {
          "reference": "urn:uuid:2890699e-42db-4006-affe-6e765d86d621"
        } ]
      }, {
        "detail": [ {
          "reference": "urn:uuid:a3ba4c2f-d52b-4bd3-9364-0e36c9c86c26"
        } ]
      }, {
        "detail": [ {
          "reference": "urn:uuid:6fbe1a99-5e0c-49c1-b1b8-2ce7c10e45c6"
        } ]
      }, {
        "detail": [ {
          "reference": "urn:uuid:ce9c5735-bb54-47d6-b118-a72ba6bf4a26"
        } ]
      }, {
        "detail": [ {
          "reference": "urn:uuid:6f81fc91-acc0-43e5-b9ea-2a2d3a91b310"
        } ]
      }, {
        "detail": [ {
          "reference": "urn:uuid:8fc2cdc0-2d4c-4dc8-8007-1dd8c03f3cdb"
        } ]
      }, {
        "detail": [ {
          "reference": "urn:uuid:f2f12ce9-4419-4df3-85bd-62c76ed92390"
        } ]
      }, {
        "detail": [ {
          "reference": "urn:uuid:7aeb092c-1ce9-4d8f-994b-47c51e77ce42"
        } ]
      }, {
        "detail": [ {
          "reference": "urn:uuid:e4a27faa-0078-4a26-bcf3-7e7b9a404cff"
        } ]
      }, {
        "detail": [ {
          "reference": "urn:uuid:d26a5fa6-5b42-4718-8f2d-5383b746d294"
        } ]
      }, {
        "detail": [ {
          "reference": "urn:uuid:157bb080-40db-4b9c-803d-41bbf1bd4fe2"
        } ]
      }, {
        "detail": [ {
          "reference": "urn:uuid:6a1d653e-a910-4599-8f99-6b570bdf44ff"
        } ]
      }, {
        "detail": [ {
          "reference": "urn:uuid:1896be97-340f-4cc1-aff5-6a8335755ee0"
        } ]
      }, {
        "detail": [ {
          "reference": "urn:uuid:7487dea8-3878-404a-a7e8-69de4356a9d3"
        } ]
      } ]
    }
  }, {
    "fullUrl": "urn:uuid:583bea80-657c-4651-a94e-8c035de4b2f3",
    "resource": {
      "resourceType": "QuestionnaireResponse",
      "id": "583bea80-657c-4651-a94e-8c035de4b2f3",
      "identifier": {
        "value": "59132"
      },
      "questionnaire": {
        "reference": "urn:uuid:fcc2e4ff-53a3-4583-aa22-0c7138598ac2"
      },
      "status": "completed",
      "subject": {
        "reference": "urn:uuid:42630117-d85b-4c1a-a18c-3f3e6c68842d"
      },
      "context": {
        "reference": "urn:uuid:3c5fd144-f9eb-4a8c-a09a-678506b58a2b"
      },
      "authored": "2021-04-06T11:33:34+00:00",
      "item": [ {
        "linkId": "Tx220074",
        "text": "What is the reason for the contact?",
        "answer": [ {
          "valueString": "an injury or other health problem"
        } ]
      } ]
    }
  }, {
    "fullUrl": "urn:uuid:fcc2e4ff-53a3-4583-aa22-0c7138598ac2",
    "resource": {
      "resourceType": "Questionnaire",
      "id": "fcc2e4ff-53a3-4583-aa22-0c7138598ac2",
      "identifier": [ {
        "value": "59132"
      } ],
      "version": "2021-04-06T11:33:34.963Z",
      "status": "active",
      "experimental": false,
      "date": "2021-04-06T11:33:34+00:00",
      "publisher": "User ID: 'MCDONALDD' User name: 'Denzle McDonald' User skill set: 'T3'",
      "lastReviewDate": "2021-04-06",
      "subjectType": [ "Patient" ],
      "item": [ {
        "linkId": "59132",
        "prefix": "5",
        "text": "What is the reason for the contact?",
        "type": "choice",
        "required": true,
        "repeats": false,
        "option": [ {
          "valueString": "an injury or other health problem, Selected: true"
        }, {
          "valueString": "labour or childbirth, Selected: false"
        }, {
          "valueString": "a need to access another healthcare service, Selected: false"
        }, {
          "valueString": "a healthcare professional requesting contact with another clinician, Selected: false"
        }, {
          "valueString": "a report of results or tests, Selected: false"
        }, {
          "valueString": "a possible failure of contraception, Selected: false"
        }, {
          "valueString": "more, Selected: false"
        } ]
      } ]
    }
  }, {
    "fullUrl": "urn:uuid:8dc3875a-4501-4ba5-a486-2f7ba3976df4",
    "resource": {
      "resourceType": "QuestionnaireResponse",
      "id": "8dc3875a-4501-4ba5-a486-2f7ba3976df4",
      "identifier": {
        "value": "59132"
      },
      "questionnaire": {
        "reference": "urn:uuid:1f2ca789-e787-4c9a-8d7a-e5a1e040ad1d"
      },
      "status": "completed",
      "subject": {
        "reference": "urn:uuid:42630117-d85b-4c1a-a18c-3f3e6c68842d"
      },
      "context": {
        "reference": "urn:uuid:3c5fd144-f9eb-4a8c-a09a-678506b58a2b"
      },
      "authored": "2021-04-06T11:33:34+00:00",
      "item": [ {
        "linkId": "Tx221807",
        "text": "STRING:to'Immediatethreatstolife(SPA/OOHversion)'-'Majorbloodloss'stem",
        "answer": [ {
          "valueString": "\"present\""
        } ]
      } ]
    }
  }, {
    "fullUrl": "urn:uuid:1f2ca789-e787-4c9a-8d7a-e5a1e040ad1d",
    "resource": {
      "resourceType": "Questionnaire",
      "id": "1f2ca789-e787-4c9a-8d7a-e5a1e040ad1d",
      "identifier": [ {
        "value": "59132"
      } ],
      "version": "2021-04-06T11:33:34.963Z",
      "status": "active",
      "experimental": false,
      "date": "2021-04-06T11:33:34+00:00",
      "publisher": "User ID: 'MCDONALDD' User name: 'Denzle McDonald' User skill set: 'T3'",
      "lastReviewDate": "2021-04-06",
      "subjectType": [ "Patient" ],
      "item": [ {
        "linkId": "59132",
        "prefix": "400",
        "text": "STRING:to'Immediatethreatstolife(SPA/OOHversion)'-'Majorbloodloss'stem",
        "type": "choice",
        "required": true,
        "repeats": false,
        "option": [ {
          "valueString": "\"present\", Selected: true"
        } ]
      } ]
    }
  }, {
    "fullUrl": "urn:uuid:2abe90e6-92c8-416a-9ded-5abc3c08a714",
    "resource": {
      "resourceType": "QuestionnaireResponse",
      "id": "2abe90e6-92c8-416a-9ded-5abc3c08a714",
      "identifier": {
        "value": "59132"
      },
      "questionnaire": {
        "reference": "urn:uuid:87538657-87af-4cda-9644-bae39ba7f3b2"
      },
      "status": "completed",
      "subject": {
        "reference": "urn:uuid:42630117-d85b-4c1a-a18c-3f3e6c68842d"
      },
      "context": {
        "reference": "urn:uuid:3c5fd144-f9eb-4a8c-a09a-678506b58a2b"
      },
      "authored": "2021-04-06T11:33:34+00:00"
    }
  }, {
    "fullUrl": "urn:uuid:87538657-87af-4cda-9644-bae39ba7f3b2",
    "resource": {
      "resourceType": "Questionnaire",
      "id": "87538657-87af-4cda-9644-bae39ba7f3b2",
      "identifier": [ {
        "value": "59132"
      } ],
      "version": "2021-04-06T11:33:34.963Z",
      "status": "active",
      "experimental": false,
      "date": "2021-04-06T11:33:34+00:00",
      "publisher": "User ID: 'MCDONALDD' User name: 'Denzle McDonald' User skill set: 'T3'",
      "lastReviewDate": "2021-04-06",
      "subjectType": [ "Patient" ]
    }
  }, {
    "fullUrl": "urn:uuid:9d7fa278-ec2c-4b9c-bf4e-f3ae64522429",
    "resource": {
      "resourceType": "QuestionnaireResponse",
      "id": "9d7fa278-ec2c-4b9c-bf4e-f3ae64522429",
      "identifier": {
        "value": "59132"
      },
      "questionnaire": {
        "reference": "urn:uuid:421d8f89-b511-4070-af76-031a4ec90d8e"
      },
      "status": "completed",
      "subject": {
        "reference": "urn:uuid:42630117-d85b-4c1a-a18c-3f3e6c68842d"
      },
      "context": {
        "reference": "urn:uuid:3c5fd144-f9eb-4a8c-a09a-678506b58a2b"
      },
      "authored": "2021-04-06T11:33:34+00:00",
      "item": [ {
        "linkId": "Tx221799",
        "text": "STRING:injury,illnessorlabourestablishedinEntryFlow",
        "answer": [ {
          "valueString": "\"present\""
        } ]
      } ]
    }
  }, {
    "fullUrl": "urn:uuid:421d8f89-b511-4070-af76-031a4ec90d8e",
    "resource": {
      "resourceType": "Questionnaire",
      "id": "421d8f89-b511-4070-af76-031a4ec90d8e",
      "identifier": [ {
        "value": "59132"
      } ],
      "version": "2021-04-06T11:33:34.963Z",
      "status": "active",
      "experimental": false,
      "date": "2021-04-06T11:33:34+00:00",
      "publisher": "User ID: 'MCDONALDD' User name: 'Denzle McDonald' User skill set: 'T3'",
      "lastReviewDate": "2021-04-06",
      "subjectType": [ "Patient" ],
      "item": [ {
        "linkId": "59132",
        "prefix": "0",
        "text": "STRING:injury,illnessorlabourestablishedinEntryFlow",
        "type": "choice",
        "required": true,
        "repeats": false,
        "option": [ {
          "valueString": "\"present\", Selected: true"
        } ]
      } ]
    }
  }, {
    "fullUrl": "urn:uuid:63bf97ed-0d4b-4e44-a8ed-7a15cab511c3",
    "resource": {
      "resourceType": "QuestionnaireResponse",
      "id": "63bf97ed-0d4b-4e44-a8ed-7a15cab511c3",
      "identifier": {
        "value": "59132"
      },
      "questionnaire": {
        "reference": "urn:uuid:de5b4cd9-0bd0-448a-aad8-ee1ffeb670c5"
      },
      "status": "completed",
      "subject": {
        "reference": "urn:uuid:42630117-d85b-4c1a-a18c-3f3e6c68842d"
      },
      "context": {
        "reference": "urn:uuid:3c5fd144-f9eb-4a8c-a09a-678506b58a2b"
      },
      "authored": "2021-04-06T11:33:34+00:00",
      "item": [ {
        "linkId": "Tx221421",
        "text": "Have you been bleeding RED BLOOD very heavily IN THE LAST 30 MINUTES?",
        "answer": [ {
          "valueString": "no"
        } ]
      } ]
    }
  }, {
    "fullUrl": "urn:uuid:de5b4cd9-0bd0-448a-aad8-ee1ffeb670c5",
    "resource": {
      "resourceType": "Questionnaire",
      "id": "de5b4cd9-0bd0-448a-aad8-ee1ffeb670c5",
      "identifier": [ {
        "value": "59132"
      } ],
      "version": "2021-04-06T11:33:34.963Z",
      "status": "active",
      "experimental": false,
      "date": "2021-04-06T11:33:34+00:00",
      "publisher": "User ID: 'MCDONALDD' User name: 'Denzle McDonald' User skill set: 'T3'",
      "lastReviewDate": "2021-04-06",
      "subjectType": [ "Patient" ],
      "item": [ {
        "linkId": "59132",
        "prefix": "200",
        "text": "Have you been bleeding RED BLOOD very heavily IN THE LAST 30 MINUTES?",
        "type": "choice",
        "required": true,
        "repeats": false,
        "option": [ {
          "valueString": "yes, Selected: false"
        }, {
          "valueString": "not sure, Selected: false"
        }, {
          "valueString": "no, Selected: true"
        } ]
      } ]
    }
  }, {
    "fullUrl": "urn:uuid:dbd352e1-daee-4815-abc5-8cf882c69bd0",
    "resource": {
      "resourceType": "QuestionnaireResponse",
      "id": "dbd352e1-daee-4815-abc5-8cf882c69bd0",
      "identifier": {
        "value": "59132"
      },
      "questionnaire": {
        "reference": "urn:uuid:2ed935df-b513-4699-9d35-73e1ef0936f5"
      },
      "status": "completed",
      "subject": {
        "reference": "urn:uuid:42630117-d85b-4c1a-a18c-3f3e6c68842d"
      },
      "context": {
        "reference": "urn:uuid:3c5fd144-f9eb-4a8c-a09a-678506b58a2b"
      },
      "authored": "2021-04-06T11:33:34+00:00",
      "item": [ {
        "linkId": "Tx221343",
        "text": "SocialConcernsExcluded",
        "answer": [ {
          "valueString": "*"
        } ]
      } ]
    }
  }, {
    "fullUrl": "urn:uuid:2ed935df-b513-4699-9d35-73e1ef0936f5",
    "resource": {
      "resourceType": "Questionnaire",
      "id": "2ed935df-b513-4699-9d35-73e1ef0936f5",
      "identifier": [ {
        "value": "59132"
      } ],
      "version": "2021-04-06T11:33:34.963Z",
      "status": "active",
      "experimental": false,
      "date": "2021-04-06T11:33:34+00:00",
      "publisher": "User ID: 'MCDONALDD' User name: 'Denzle McDonald' User skill set: 'T3'",
      "lastReviewDate": "2021-04-06",
      "subjectType": [ "Patient" ],
      "item": [ {
        "linkId": "59132",
        "prefix": "2600",
        "text": "SocialConcernsExcluded",
        "type": "choice",
        "required": true,
        "repeats": false,
        "option": [ {
          "valueString": "==\"present\", Selected: false"
        }, {
          "valueString": "*, Selected: true"
        } ]
      } ]
    }
  }, {
    "fullUrl": "urn:uuid:6318bc46-b2ea-4051-b2a4-a09c632f165f",
    "resource": {
      "resourceType": "QuestionnaireResponse",
      "id": "6318bc46-b2ea-4051-b2a4-a09c632f165f",
      "identifier": {
        "value": "59132"
      },
      "questionnaire": {
        "reference": "urn:uuid:0d3026da-d795-4c8b-a4ad-07d30d40b375"
      },
      "status": "completed",
      "subject": {
        "reference": "urn:uuid:42630117-d85b-4c1a-a18c-3f3e6c68842d"
      },
      "context": {
        "reference": "urn:uuid:3c5fd144-f9eb-4a8c-a09a-678506b58a2b"
      },
      "authored": "2021-04-06T11:33:34+00:00",
      "item": [ {
        "linkId": "Tx130011",
        "text": "What is the main problem?",
        "answer": [ {
          "valueString": "illness or other health problem (specify)"
        } ]
      } ]
    }
  }, {
    "fullUrl": "urn:uuid:0d3026da-d795-4c8b-a4ad-07d30d40b375",
    "resource": {
      "resourceType": "Questionnaire",
      "id": "0d3026da-d795-4c8b-a4ad-07d30d40b375",
      "identifier": [ {
        "value": "59132"
      } ],
      "version": "2021-04-06T11:33:34.963Z",
      "status": "active",
      "experimental": false,
      "date": "2021-04-06T11:33:34+00:00",
      "publisher": "User ID: 'MCDONALDD' User name: 'Denzle McDonald' User skill set: 'T3'",
      "lastReviewDate": "2021-04-06",
      "subjectType": [ "Patient" ],
      "item": [ {
        "linkId": "59132",
        "prefix": "2500",
        "text": "What is the main problem?",
        "type": "choice",
        "required": true,
        "repeats": false,
        "option": [ {
          "valueString": "the individual has been told to follow a particular course of action (specify), Selected: false"
        }, {
          "valueString": "the individual is an identified frequent caller, Selected: false"
        }, {
          "valueString": "injury (specify), Selected: false"
        }, {
          "valueString": "illness or other health problem (specify), Selected: true"
        }, {
          "valueString": "child protection/vulnerable adult concern, Selected: false"
        }, {
          "valueString": "social or domestic emergency, Selected: false"
        }, {
          "valueString": "the environment potentially poses an immediate threat to life (specify), Selected: false"
        } ]
      } ]
    }
  }, {
    "fullUrl": "urn:uuid:834f4c54-c945-4f1e-9b8b-1c0921bfe0d8",
    "resource": {
      "resourceType": "QuestionnaireResponse",
      "id": "834f4c54-c945-4f1e-9b8b-1c0921bfe0d8",
      "identifier": {
        "value": "59132"
      },
      "questionnaire": {
        "reference": "urn:uuid:144a2bd6-2399-43fa-bc6c-46102aec4930"
      },
      "status": "completed",
      "subject": {
        "reference": "urn:uuid:42630117-d85b-4c1a-a18c-3f3e6c68842d"
      },
      "context": {
        "reference": "urn:uuid:3c5fd144-f9eb-4a8c-a09a-678506b58a2b"
      },
      "authored": "2021-04-06T11:33:34+00:00"
    }
  }, {
    "fullUrl": "urn:uuid:144a2bd6-2399-43fa-bc6c-46102aec4930",
    "resource": {
      "resourceType": "Questionnaire",
      "id": "144a2bd6-2399-43fa-bc6c-46102aec4930",
      "identifier": [ {
        "value": "59132"
      } ],
      "version": "2021-04-06T11:33:34.963Z",
      "status": "active",
      "experimental": false,
      "date": "2021-04-06T11:33:34+00:00",
      "publisher": "User ID: 'MCDONALDD' User name: 'Denzle McDonald' User skill set: 'T3'",
      "lastReviewDate": "2021-04-06",
      "subjectType": [ "Patient" ]
    }
  }, {
    "fullUrl": "urn:uuid:2379b88a-7d94-42d2-b529-efa1856bb4a5",
    "resource": {
      "resourceType": "QuestionnaireResponse",
      "id": "2379b88a-7d94-42d2-b529-efa1856bb4a5",
      "identifier": {
        "value": "59132"
      },
      "questionnaire": {
        "reference": "urn:uuid:e65d0669-2738-46ac-941c-a07ceebd9945"
      },
      "status": "completed",
      "subject": {
        "reference": "urn:uuid:42630117-d85b-4c1a-a18c-3f3e6c68842d"
      },
      "context": {
        "reference": "urn:uuid:3c5fd144-f9eb-4a8c-a09a-678506b58a2b"
      },
      "authored": "2021-04-06T11:33:34+00:00",
      "item": [ {
        "linkId": "Tx61025",
        "text": "Are you so breathless that speaking more than a few words is impossible?",
        "answer": [ {
          "valueString": "no"
        } ]
      } ]
    }
  }, {
    "fullUrl": "urn:uuid:e65d0669-2738-46ac-941c-a07ceebd9945",
    "resource": {
      "resourceType": "Questionnaire",
      "id": "e65d0669-2738-46ac-941c-a07ceebd9945",
      "identifier": [ {
        "value": "59132"
      } ],
      "version": "2021-04-06T11:33:34.963Z",
      "status": "active",
      "experimental": false,
      "date": "2021-04-06T11:33:34+00:00",
      "publisher": "User ID: 'MCDONALDD' User name: 'Denzle McDonald' User skill set: 'T3'",
      "lastReviewDate": "2021-04-06",
      "subjectType": [ "Patient" ],
      "item": [ {
        "linkId": "59132",
        "prefix": "0",
        "text": "Are you so breathless that speaking more than a few words is impossible?",
        "type": "choice",
        "required": true,
        "repeats": false,
        "option": [ {
          "valueString": "yes, Selected: false"
        }, {
          "valueString": "not sure, Selected: false"
        }, {
          "valueString": "no, Selected: true"
        } ]
      } ]
    }
  }, {
    "fullUrl": "urn:uuid:afd44e72-03ef-4068-9ad7-bf39df9bbadb",
    "resource": {
      "resourceType": "QuestionnaireResponse",
      "id": "afd44e72-03ef-4068-9ad7-bf39df9bbadb",
      "identifier": {
        "value": "59132"
      },
      "questionnaire": {
        "reference": "urn:uuid:03e6a2ef-d389-4d7f-add7-53cf934969e8"
      },
      "status": "completed",
      "subject": {
        "reference": "urn:uuid:42630117-d85b-4c1a-a18c-3f3e6c68842d"
      },
      "context": {
        "reference": "urn:uuid:3c5fd144-f9eb-4a8c-a09a-678506b58a2b"
      },
      "authored": "2021-04-06T11:33:34+00:00",
      "item": [ {
        "linkId": "Tx220845",
        "text": "SYSTEM_FLUPANDEMIC",
        "answer": [ {
          "valueString": "*"
        } ]
      } ]
    }
  }, {
    "fullUrl": "urn:uuid:03e6a2ef-d389-4d7f-add7-53cf934969e8",
    "resource": {
      "resourceType": "Questionnaire",
      "id": "03e6a2ef-d389-4d7f-add7-53cf934969e8",
      "identifier": [ {
        "value": "59132"
      } ],
      "version": "2021-04-06T11:33:34.963Z",
      "status": "active",
      "experimental": false,
      "date": "2021-04-06T11:33:34+00:00",
      "publisher": "User ID: 'MCDONALDD' User name: 'Denzle McDonald' User skill set: 'T3'",
      "lastReviewDate": "2021-04-06",
      "subjectType": [ "Patient" ],
      "item": [ {
        "linkId": "59132",
        "prefix": "100",
        "text": "SYSTEM_FLUPANDEMIC",
        "type": "choice",
        "required": true,
        "repeats": false,
        "option": [ {
          "valueString": "==\"pandemic\", Selected: false"
        }, {
          "valueString": "*, Selected: true"
        } ]
      } ]
    }
  }, {
    "fullUrl": "urn:uuid:d75b3ed7-ad79-4806-9c77-09b3602cdd28",
    "resource": {
      "resourceType": "QuestionnaireResponse",
      "id": "d75b3ed7-ad79-4806-9c77-09b3602cdd28",
      "identifier": {
        "value": "59132"
      },
      "questionnaire": {
        "reference": "urn:uuid:71848f8a-ecb6-4386-9c09-dde24cd943bf"
      },
      "status": "completed",
      "subject": {
        "reference": "urn:uuid:42630117-d85b-4c1a-a18c-3f3e6c68842d"
      },
      "context": {
        "reference": "urn:uuid:3c5fd144-f9eb-4a8c-a09a-678506b58a2b"
      },
      "authored": "2021-04-06T11:33:34+00:00",
      "item": [ {
        "linkId": "Tx220044",
        "text": "WHAT IS SAID TO BE THE MAIN REASON FOR THIS CONTACT?",
        "answer": [ {
          "valueString": "more"
        } ]
      } ]
    }
  }, {
    "fullUrl": "urn:uuid:71848f8a-ecb6-4386-9c09-dde24cd943bf",
    "resource": {
      "resourceType": "Questionnaire",
      "id": "71848f8a-ecb6-4386-9c09-dde24cd943bf",
      "identifier": [ {
        "value": "59132"
      } ],
      "version": "2021-04-06T11:33:34.963Z",
      "status": "active",
      "experimental": false,
      "date": "2021-04-06T11:33:34+00:00",
      "publisher": "User ID: 'MCDONALDD' User name: 'Denzle McDonald' User skill set: 'T3'",
      "lastReviewDate": "2021-04-06",
      "subjectType": [ "Patient" ],
      "item": [ {
        "linkId": "59132",
        "prefix": "5000",
        "text": "WHAT IS SAID TO BE THE MAIN REASON FOR THIS CONTACT?",
        "type": "choice",
        "required": true,
        "repeats": false,
        "option": [ {
          "valueString": "a probable allergic reaction now, Selected: false"
        }, {
          "valueString": "chest or upper back pain, Selected: false"
        }, {
          "valueString": "a probable fit or seizure within the last 12 hours, Selected: false"
        }, {
          "valueString": "a suicide attempt, Selected: false"
        }, {
          "valueString": "new confusion now, Selected: false"
        }, {
          "valueString": "a probable stroke or mini stroke, Selected: false"
        }, {
          "valueString": "more, Selected: true"
        } ]
      } ]
    }
  }, {
    "fullUrl": "urn:uuid:4533a105-dade-459d-873a-2640b56e64e8",
    "resource": {
      "resourceType": "QuestionnaireResponse",
      "id": "4533a105-dade-459d-873a-2640b56e64e8",
      "identifier": {
        "value": "59132"
      },
      "questionnaire": {
        "reference": "urn:uuid:61102a8e-1927-45dd-943c-83a2170010bf"
      },
      "status": "completed",
      "subject": {
        "reference": "urn:uuid:42630117-d85b-4c1a-a18c-3f3e6c68842d"
      },
      "context": {
        "reference": "urn:uuid:3c5fd144-f9eb-4a8c-a09a-678506b58a2b"
      },
      "authored": "2021-04-06T11:33:34+00:00",
      "item": [ {
        "linkId": "Tx223029",
        "text": "WHAT IS SAID TO BE THE MAIN REASON FOR THIS CONTACT?",
        "answer": [ {
          "valueString": "none of the above"
        } ]
      } ]
    }
  }, {
    "fullUrl": "urn:uuid:61102a8e-1927-45dd-943c-83a2170010bf",
    "resource": {
      "resourceType": "Questionnaire",
      "id": "61102a8e-1927-45dd-943c-83a2170010bf",
      "identifier": [ {
        "value": "59132"
      } ],
      "version": "2021-04-06T11:33:34.963Z",
      "status": "active",
      "experimental": false,
      "date": "2021-04-06T11:33:34+00:00",
      "publisher": "User ID: 'MCDONALDD' User name: 'Denzle McDonald' User skill set: 'T3'",
      "lastReviewDate": "2021-04-06",
      "subjectType": [ "Patient" ],
      "item": [ {
        "linkId": "59132",
        "prefix": "4100",
        "text": "WHAT IS SAID TO BE THE MAIN REASON FOR THIS CONTACT?",
        "type": "choice",
        "required": true,
        "repeats": false,
        "option": [ {
          "valueString": "a diabetic hypo (low blood sugar) or a diabetic hyper (high blood sugar), Selected: false"
        }, {
          "valueString": "recovery from an ICD (implanted cardioverter defibrillator) shock, Selected: false"
        }, {
          "valueString": "none of the above, Selected: true"
        } ]
      } ]
    }
  }, {
    "fullUrl": "urn:uuid:359cbff7-35cc-4c39-8669-a8f12f19b104",
    "resource": {
      "resourceType": "QuestionnaireResponse",
      "id": "359cbff7-35cc-4c39-8669-a8f12f19b104",
      "identifier": {
        "value": "59132"
      },
      "questionnaire": {
        "reference": "urn:uuid:2c0a62c9-797d-42f4-a6e7-51a99f2ee8ee"
      },
      "status": "completed",
      "subject": {
        "reference": "urn:uuid:42630117-d85b-4c1a-a18c-3f3e6c68842d"
      },
      "context": {
        "reference": "urn:uuid:3c5fd144-f9eb-4a8c-a09a-678506b58a2b"
      },
      "authored": "2021-04-06T11:33:34+00:00",
      "item": [ {
        "linkId": "Tx223142",
        "text": "Does the skin on the chest, back or abdomen feel a normal temperature?",
        "answer": [ {
          "valueString": "yes - normal, warm or hot"
        } ]
      } ]
    }
  }, {
    "fullUrl": "urn:uuid:2c0a62c9-797d-42f4-a6e7-51a99f2ee8ee",
    "resource": {
      "resourceType": "Questionnaire",
      "id": "2c0a62c9-797d-42f4-a6e7-51a99f2ee8ee",
      "identifier": [ {
        "value": "59132"
      } ],
      "version": "2021-04-06T11:33:34.963Z",
      "status": "active",
      "experimental": false,
      "date": "2021-04-06T11:33:34+00:00",
      "publisher": "User ID: 'MCDONALDD' User name: 'Denzle McDonald' User skill set: 'T3'",
      "lastReviewDate": "2021-04-06",
      "subjectType": [ "Patient" ],
      "item": [ {
        "linkId": "59132",
        "prefix": "4400",
        "text": "Does the skin on the chest, back or abdomen feel a normal temperature?",
        "type": "choice",
        "required": true,
        "repeats": false,
        "option": [ {
          "valueString": "yes - normal, warm or hot, Selected: true"
        }, {
          "valueString": "not sure, Selected: false"
        }, {
          "valueString": "no - cool OR cold, Selected: false"
        }, {
          "valueString": "not safe to touch, Selected: false"
        } ]
      } ]
    }
  }, {
    "fullUrl": "urn:uuid:da7b1c8a-0b81-4593-a002-3cc1b0a787a8",
    "resource": {
      "resourceType": "QuestionnaireResponse",
      "id": "da7b1c8a-0b81-4593-a002-3cc1b0a787a8",
      "identifier": {
        "value": "59132"
      },
      "questionnaire": {
        "reference": "urn:uuid:9aa2a883-13d7-4906-ba28-dacda0f6b9d4"
      },
      "status": "completed",
      "subject": {
        "reference": "urn:uuid:42630117-d85b-4c1a-a18c-3f3e6c68842d"
      },
      "context": {
        "reference": "urn:uuid:3c5fd144-f9eb-4a8c-a09a-678506b58a2b"
      },
      "authored": "2021-04-06T11:33:34+00:00",
      "item": [ {
        "linkId": "Tx221724",
        "text": "STRING:ShockAsked",
        "answer": [ {
          "valueString": "\"present\""
        } ]
      } ]
    }
  }, {
    "fullUrl": "urn:uuid:9aa2a883-13d7-4906-ba28-dacda0f6b9d4",
    "resource": {
      "resourceType": "Questionnaire",
      "id": "9aa2a883-13d7-4906-ba28-dacda0f6b9d4",
      "identifier": [ {
        "value": "59132"
      } ],
      "version": "2021-04-06T11:33:34.963Z",
      "status": "active",
      "experimental": false,
      "date": "2021-04-06T11:33:34+00:00",
      "publisher": "User ID: 'MCDONALDD' User name: 'Denzle McDonald' User skill set: 'T3'",
      "lastReviewDate": "2021-04-06",
      "subjectType": [ "Patient" ],
      "item": [ {
        "linkId": "59132",
        "prefix": "3300",
        "text": "STRING:ShockAsked",
        "type": "choice",
        "required": true,
        "repeats": false,
        "option": [ {
          "valueString": "\"present\", Selected: true"
        } ]
      } ]
    }
  }, {
    "fullUrl": "urn:uuid:e1e990ab-5d3e-4a92-a246-929b04af14b2",
    "resource": {
      "resourceType": "QuestionnaireResponse",
      "id": "e1e990ab-5d3e-4a92-a246-929b04af14b2",
      "identifier": {
        "value": "59132"
      },
      "questionnaire": {
        "reference": "urn:uuid:c826ce5e-2676-4b86-b2e8-41e9142ec787"
      },
      "status": "completed",
      "subject": {
        "reference": "urn:uuid:42630117-d85b-4c1a-a18c-3f3e6c68842d"
      },
      "context": {
        "reference": "urn:uuid:3c5fd144-f9eb-4a8c-a09a-678506b58a2b"
      },
      "authored": "2021-04-06T11:33:34+00:00"
    }
  }, {
    "fullUrl": "urn:uuid:c826ce5e-2676-4b86-b2e8-41e9142ec787",
    "resource": {
      "resourceType": "Questionnaire",
      "id": "c826ce5e-2676-4b86-b2e8-41e9142ec787",
      "identifier": [ {
        "value": "59132"
      } ],
      "version": "2021-04-06T11:33:34.963Z",
      "status": "active",
      "experimental": false,
      "date": "2021-04-06T11:33:34+00:00",
      "publisher": "User ID: 'MCDONALDD' User name: 'Denzle McDonald' User skill set: 'T3'",
      "lastReviewDate": "2021-04-06",
      "subjectType": [ "Patient" ]
    }
  }, {
    "fullUrl": "urn:uuid:6ed7c8c8-e058-4c6b-a1a3-9bc0836ce83f",
    "resource": {
      "resourceType": "QuestionnaireResponse",
      "id": "6ed7c8c8-e058-4c6b-a1a3-9bc0836ce83f",
      "identifier": {
        "value": "59132"
      },
      "questionnaire": {
        "reference": "urn:uuid:a0ac5f2a-721b-4587-bd0a-d757a61bbd76"
      },
      "status": "completed",
      "subject": {
        "reference": "urn:uuid:42630117-d85b-4c1a-a18c-3f3e6c68842d"
      },
      "context": {
        "reference": "urn:uuid:3c5fd144-f9eb-4a8c-a09a-678506b58a2b"
      },
      "authored": "2021-04-06T11:33:34+00:00",
      "item": [ {
        "linkId": "Tx223272",
        "text": "SYSTEM_VHF",
        "answer": [ {
          "valueString": "*"
        } ]
      } ]
    }
  }, {
    "fullUrl": "urn:uuid:a0ac5f2a-721b-4587-bd0a-d757a61bbd76",
    "resource": {
      "resourceType": "Questionnaire",
      "id": "a0ac5f2a-721b-4587-bd0a-d757a61bbd76",
      "identifier": [ {
        "value": "59132"
      } ],
      "version": "2021-04-06T11:33:34.963Z",
      "status": "active",
      "experimental": false,
      "date": "2021-04-06T11:33:34+00:00",
      "publisher": "User ID: 'MCDONALDD' User name: 'Denzle McDonald' User skill set: 'T3'",
      "lastReviewDate": "2021-04-06",
      "subjectType": [ "Patient" ],
      "item": [ {
        "linkId": "59132",
        "prefix": "0",
        "text": "SYSTEM_VHF",
        "type": "choice",
        "required": true,
        "repeats": false,
        "option": [ {
          "valueString": "==\"vhf\", Selected: false"
        }, {
          "valueString": "*, Selected: true"
        } ]
      } ]
    }
  }, {
    "fullUrl": "urn:uuid:2d92827c-fc06-4ab0-82b5-e6dc43298957",
    "resource": {
      "resourceType": "QuestionnaireResponse",
      "id": "2d92827c-fc06-4ab0-82b5-e6dc43298957",
      "identifier": {
        "value": "59132"
      },
      "questionnaire": {
        "reference": "urn:uuid:29bcb375-7c7b-4c34-910e-c12389d1096b"
      },
      "status": "completed",
      "subject": {
        "reference": "urn:uuid:42630117-d85b-4c1a-a18c-3f3e6c68842d"
      },
      "context": {
        "reference": "urn:uuid:3c5fd144-f9eb-4a8c-a09a-678506b58a2b"
      },
      "authored": "2021-04-06T11:33:34+00:00",
      "item": [ {
        "linkId": "Tx222416",
        "text": "Have you actually vomited?",
        "answer": [ {
          "valueString": "no"
        } ]
      } ]
    }
  }, {
    "fullUrl": "urn:uuid:29bcb375-7c7b-4c34-910e-c12389d1096b",
    "resource": {
      "resourceType": "Questionnaire",
      "id": "29bcb375-7c7b-4c34-910e-c12389d1096b",
      "identifier": [ {
        "value": "59132"
      } ],
      "version": "2021-04-06T11:33:34.963Z",
      "status": "active",
      "experimental": false,
      "date": "2021-04-06T11:33:34+00:00",
      "publisher": "User ID: 'MCDONALDD' User name: 'Denzle McDonald' User skill set: 'T3'",
      "lastReviewDate": "2021-04-06",
      "subjectType": [ "Patient" ],
      "item": [ {
        "linkId": "59132",
        "prefix": "30400",
        "text": "Have you actually vomited?",
        "type": "choice",
        "required": true,
        "repeats": false,
        "option": [ {
          "valueString": "yes, Selected: false"
        }, {
          "valueString": "not sure, Selected: false"
        }, {
          "valueString": "no, Selected: true"
        } ]
      } ]
    }
  }, {
    "fullUrl": "urn:uuid:8956d6d9-674e-4145-8a8d-017d078f8d79",
    "resource": {
      "resourceType": "QuestionnaireResponse",
      "id": "8956d6d9-674e-4145-8a8d-017d078f8d79",
      "identifier": {
        "value": "59132"
      },
      "questionnaire": {
        "reference": "urn:uuid:6a5e8ec3-2a1f-4ff7-b260-432a97bdfe26"
      },
      "status": "completed",
      "subject": {
        "reference": "urn:uuid:42630117-d85b-4c1a-a18c-3f3e6c68842d"
      },
      "context": {
        "reference": "urn:uuid:3c5fd144-f9eb-4a8c-a09a-678506b58a2b"
      },
      "authored": "2021-04-06T11:33:34+00:00",
      "item": [ {
        "linkId": "Tx220964",
        "text": "Have you got diarrhoea as well?",
        "answer": [ {
          "valueString": "no"
        } ]
      } ]
    }
  }, {
    "fullUrl": "urn:uuid:6a5e8ec3-2a1f-4ff7-b260-432a97bdfe26",
    "resource": {
      "resourceType": "Questionnaire",
      "id": "6a5e8ec3-2a1f-4ff7-b260-432a97bdfe26",
      "identifier": [ {
        "value": "59132"
      } ],
      "version": "2021-04-06T11:33:34.963Z",
      "status": "active",
      "experimental": false,
      "date": "2021-04-06T11:33:34+00:00",
      "publisher": "User ID: 'MCDONALDD' User name: 'Denzle McDonald' User skill set: 'T3'",
      "lastReviewDate": "2021-04-06",
      "subjectType": [ "Patient" ],
      "item": [ {
        "linkId": "59132",
        "prefix": "100",
        "text": "Have you got diarrhoea as well?",
        "type": "choice",
        "required": true,
        "repeats": false,
        "option": [ {
          "valueString": "yes, Selected: false"
        }, {
          "valueString": "not sure, Selected: false"
        }, {
          "valueString": "no, Selected: true"
        } ]
      } ]
    }
  }, {
    "fullUrl": "urn:uuid:5642d2b8-798e-4dbd-bac8-e28c8911088d",
    "resource": {
      "resourceType": "QuestionnaireResponse",
      "id": "5642d2b8-798e-4dbd-bac8-e28c8911088d",
      "identifier": {
        "value": "59132"
      },
      "questionnaire": {
        "reference": "urn:uuid:92536b7e-7151-45f3-b1ab-5d490bc8c7ad"
      },
      "status": "completed",
      "subject": {
        "reference": "urn:uuid:42630117-d85b-4c1a-a18c-3f3e6c68842d"
      },
      "context": {
        "reference": "urn:uuid:3c5fd144-f9eb-4a8c-a09a-678506b58a2b"
      },
      "authored": "2021-04-06T11:33:34+00:00",
      "item": [ {
        "linkId": "Tx221277",
        "text": "Vomiting",
        "answer": [ {
          "valueString": "*"
        } ]
      } ]
    }
  }, {
    "fullUrl": "urn:uuid:92536b7e-7151-45f3-b1ab-5d490bc8c7ad",
    "resource": {
      "resourceType": "Questionnaire",
      "id": "92536b7e-7151-45f3-b1ab-5d490bc8c7ad",
      "identifier": [ {
        "value": "59132"
      } ],
      "version": "2021-04-06T11:33:34.963Z",
      "status": "active",
      "experimental": false,
      "date": "2021-04-06T11:33:34+00:00",
      "publisher": "User ID: 'MCDONALDD' User name: 'Denzle McDonald' User skill set: 'T3'",
      "lastReviewDate": "2021-04-06",
      "subjectType": [ "Patient" ],
      "item": [ {
        "linkId": "59132",
        "prefix": "400",
        "text": "Vomiting",
        "type": "choice",
        "required": true,
        "repeats": false,
        "option": [ {
          "valueString": "==\"present\", Selected: false"
        }, {
          "valueString": "*, Selected: true"
        } ]
      } ]
    }
  }, {
    "fullUrl": "urn:uuid:229503d0-dd2b-4358-99ae-5844c5d6a306",
    "resource": {
      "resourceType": "QuestionnaireResponse",
      "id": "229503d0-dd2b-4358-99ae-5844c5d6a306",
      "identifier": {
        "value": "59132"
      },
      "questionnaire": {
        "reference": "urn:uuid:a184a839-3f92-4db0-93ad-56dc08b46d91"
      },
      "status": "completed",
      "subject": {
        "reference": "urn:uuid:42630117-d85b-4c1a-a18c-3f3e6c68842d"
      },
      "context": {
        "reference": "urn:uuid:3c5fd144-f9eb-4a8c-a09a-678506b58a2b"
      },
      "authored": "2021-04-06T11:33:34+00:00",
      "item": [ {
        "linkId": "Tx221183",
        "text": "Did the symptoms come on after drinking alcohol?",
        "answer": [ {
          "valueString": "no"
        } ]
      } ]
    }
  }, {
    "fullUrl": "urn:uuid:a184a839-3f92-4db0-93ad-56dc08b46d91",
    "resource": {
      "resourceType": "Questionnaire",
      "id": "a184a839-3f92-4db0-93ad-56dc08b46d91",
      "identifier": [ {
        "value": "59132"
      } ],
      "version": "2021-04-06T11:33:34.963Z",
      "status": "active",
      "experimental": false,
      "date": "2021-04-06T11:33:34+00:00",
      "publisher": "User ID: 'MCDONALDD' User name: 'Denzle McDonald' User skill set: 'T3'",
      "lastReviewDate": "2021-04-06",
      "subjectType": [ "Patient" ],
      "item": [ {
        "linkId": "59132",
        "prefix": "300",
        "text": "Did the symptoms come on after drinking alcohol?",
        "type": "choice",
        "required": true,
        "repeats": false,
        "option": [ {
          "valueString": "yes, Selected: false"
        }, {
          "valueString": "not sure, Selected: false"
        }, {
          "valueString": "no, Selected: true"
        } ]
      } ]
    }
  }, {
    "fullUrl": "urn:uuid:2a4c3af6-ea3f-4dbe-92ea-afdfea240b05",
    "resource": {
      "resourceType": "QuestionnaireResponse",
      "id": "2a4c3af6-ea3f-4dbe-92ea-afdfea240b05",
      "identifier": {
        "value": "59132"
      },
      "questionnaire": {
        "reference": "urn:uuid:452202e9-9616-4031-9aec-eec1f6f5a2c0"
      },
      "status": "completed",
      "subject": {
        "reference": "urn:uuid:42630117-d85b-4c1a-a18c-3f3e6c68842d"
      },
      "context": {
        "reference": "urn:uuid:3c5fd144-f9eb-4a8c-a09a-678506b58a2b"
      },
      "authored": "2021-04-06T11:33:34+00:00",
      "item": [ {
        "linkId": "Tx221277",
        "text": "Vomiting",
        "answer": [ {
          "valueString": "*"
        } ]
      } ]
    }
  }, {
    "fullUrl": "urn:uuid:452202e9-9616-4031-9aec-eec1f6f5a2c0",
    "resource": {
      "resourceType": "Questionnaire",
      "id": "452202e9-9616-4031-9aec-eec1f6f5a2c0",
      "identifier": [ {
        "value": "59132"
      } ],
      "version": "2021-04-06T11:33:34.963Z",
      "status": "active",
      "experimental": false,
      "date": "2021-04-06T11:33:34+00:00",
      "publisher": "User ID: 'MCDONALDD' User name: 'Denzle McDonald' User skill set: 'T3'",
      "lastReviewDate": "2021-04-06",
      "subjectType": [ "Patient" ],
      "item": [ {
        "linkId": "59132",
        "prefix": "1000",
        "text": "Vomiting",
        "type": "choice",
        "required": true,
        "repeats": false,
        "option": [ {
          "valueString": "==\"present\", Selected: false"
        }, {
          "valueString": "*, Selected: true"
        } ]
      } ]
    }
  }, {
    "fullUrl": "urn:uuid:ebf47ec3-e638-499a-8057-517044c3a2b3",
    "resource": {
      "resourceType": "QuestionnaireResponse",
      "id": "ebf47ec3-e638-499a-8057-517044c3a2b3",
      "identifier": {
        "value": "59132"
      },
      "questionnaire": {
        "reference": "urn:uuid:302eb1b2-3690-4007-a7df-08c29a198994"
      },
      "status": "completed",
      "subject": {
        "reference": "urn:uuid:42630117-d85b-4c1a-a18c-3f3e6c68842d"
      },
      "context": {
        "reference": "urn:uuid:3c5fd144-f9eb-4a8c-a09a-678506b58a2b"
      },
      "authored": "2021-04-06T11:33:34+00:00",
      "item": [ {
        "linkId": "Tx220825",
        "text": "Have you also got any pain in the abdomen?",
        "answer": [ {
          "valueString": "yes"
        } ]
      } ]
    }
  }, {
    "fullUrl": "urn:uuid:302eb1b2-3690-4007-a7df-08c29a198994",
    "resource": {
      "resourceType": "Questionnaire",
      "id": "302eb1b2-3690-4007-a7df-08c29a198994",
      "identifier": [ {
        "value": "59132"
      } ],
      "version": "2021-04-06T11:33:34.963Z",
      "status": "active",
      "experimental": false,
      "date": "2021-04-06T11:33:34+00:00",
      "publisher": "User ID: 'MCDONALDD' User name: 'Denzle McDonald' User skill set: 'T3'",
      "lastReviewDate": "2021-04-06",
      "subjectType": [ "Patient" ],
      "item": [ {
        "linkId": "59132",
        "prefix": "1500",
        "text": "Have you also got any pain in the abdomen?",
        "type": "choice",
        "required": true,
        "repeats": false,
        "option": [ {
          "valueString": "yes, Selected: true"
        }, {
          "valueString": "not sure, Selected: false"
        }, {
          "valueString": "no, Selected: false"
        } ]
      } ]
    }
  }, {
    "fullUrl": "urn:uuid:1f8ef931-1a26-4278-b08b-e6a456d7903c",
    "resource": {
      "resourceType": "QuestionnaireResponse",
      "id": "1f8ef931-1a26-4278-b08b-e6a456d7903c",
      "identifier": {
        "value": "59132"
      },
      "questionnaire": {
        "reference": "urn:uuid:89561d6a-ab09-4eff-8c1f-1526330be9f3"
      },
      "status": "completed",
      "subject": {
        "reference": "urn:uuid:42630117-d85b-4c1a-a18c-3f3e6c68842d"
      },
      "context": {
        "reference": "urn:uuid:3c5fd144-f9eb-4a8c-a09a-678506b58a2b"
      },
      "authored": "2021-04-06T11:33:34+00:00",
      "item": [ {
        "linkId": "Tx224927",
        "text": "STRING:VomitingAnd/OrNauseaWithAbdominalPainPW",
        "answer": [ {
          "valueString": "\"present\""
        } ]
      } ]
    }
  }, {
    "fullUrl": "urn:uuid:89561d6a-ab09-4eff-8c1f-1526330be9f3",
    "resource": {
      "resourceType": "Questionnaire",
      "id": "89561d6a-ab09-4eff-8c1f-1526330be9f3",
      "identifier": [ {
        "value": "59132"
      } ],
      "version": "2021-04-06T11:33:34.963Z",
      "status": "active",
      "experimental": false,
      "date": "2021-04-06T11:33:34+00:00",
      "publisher": "User ID: 'MCDONALDD' User name: 'Denzle McDonald' User skill set: 'T3'",
      "lastReviewDate": "2021-04-06",
      "subjectType": [ "Patient" ],
      "item": [ {
        "linkId": "59132",
        "prefix": "64600",
        "text": "STRING:VomitingAnd/OrNauseaWithAbdominalPainPW",
        "type": "choice",
        "required": true,
        "repeats": false,
        "option": [ {
          "valueString": "\"present\", Selected: true"
        } ]
      } ]
    }
  }, {
    "fullUrl": "urn:uuid:3a66e2bf-22b7-45e7-bb9e-98a103a3d4f2",
    "resource": {
      "resourceType": "QuestionnaireResponse",
      "id": "3a66e2bf-22b7-45e7-bb9e-98a103a3d4f2",
      "identifier": {
        "value": "59132"
      },
      "questionnaire": {
        "reference": "urn:uuid:c2470e7a-b556-4fa4-9aa2-b6d36c79b454"
      },
      "status": "completed",
      "subject": {
        "reference": "urn:uuid:42630117-d85b-4c1a-a18c-3f3e6c68842d"
      },
      "context": {
        "reference": "urn:uuid:3c5fd144-f9eb-4a8c-a09a-678506b58a2b"
      },
      "authored": "2021-04-06T11:33:34+00:00",
      "item": [ {
        "linkId": "Tx224907",
        "text": "STRING:GITSymptomWithAbdominalPain",
        "answer": [ {
          "valueString": "\"present\""
        } ]
      } ]
    }
  }, {
    "fullUrl": "urn:uuid:c2470e7a-b556-4fa4-9aa2-b6d36c79b454",
    "resource": {
      "resourceType": "Questionnaire",
      "id": "c2470e7a-b556-4fa4-9aa2-b6d36c79b454",
      "identifier": [ {
        "value": "59132"
      } ],
      "version": "2021-04-06T11:33:34.963Z",
      "status": "active",
      "experimental": false,
      "date": "2021-04-06T11:33:34+00:00",
      "publisher": "User ID: 'MCDONALDD' User name: 'Denzle McDonald' User skill set: 'T3'",
      "lastReviewDate": "2021-04-06",
      "subjectType": [ "Patient" ],
      "item": [ {
        "linkId": "59132",
        "prefix": "64700",
        "text": "STRING:GITSymptomWithAbdominalPain",
        "type": "choice",
        "required": true,
        "repeats": false,
        "option": [ {
          "valueString": "\"present\", Selected: true"
        } ]
      } ]
    }
  }, {
    "fullUrl": "urn:uuid:9dea13e0-a83f-407f-8d33-d72aa85bb5bf",
    "resource": {
      "resourceType": "QuestionnaireResponse",
      "id": "9dea13e0-a83f-407f-8d33-d72aa85bb5bf",
      "identifier": {
        "value": "59132"
      },
      "questionnaire": {
        "reference": "urn:uuid:7a6a543f-4b1b-4d64-8750-f77f8d82219e"
      },
      "status": "completed",
      "subject": {
        "reference": "urn:uuid:42630117-d85b-4c1a-a18c-3f3e6c68842d"
      },
      "context": {
        "reference": "urn:uuid:3c5fd144-f9eb-4a8c-a09a-678506b58a2b"
      },
      "authored": "2021-04-06T11:33:34+00:00"
    }
  }, {
    "fullUrl": "urn:uuid:7a6a543f-4b1b-4d64-8750-f77f8d82219e",
    "resource": {
      "resourceType": "Questionnaire",
      "id": "7a6a543f-4b1b-4d64-8750-f77f8d82219e",
      "identifier": [ {
        "value": "59132"
      } ],
      "version": "2021-04-06T11:33:34.963Z",
      "status": "active",
      "experimental": false,
      "date": "2021-04-06T11:33:34+00:00",
      "publisher": "User ID: 'MCDONALDD' User name: 'Denzle McDonald' User skill set: 'T3'",
      "lastReviewDate": "2021-04-06",
      "subjectType": [ "Patient" ]
    }
  }, {
    "fullUrl": "urn:uuid:38143f71-3171-4410-99e7-fa4ed34f1e54",
    "resource": {
      "resourceType": "QuestionnaireResponse",
      "id": "38143f71-3171-4410-99e7-fa4ed34f1e54",
      "identifier": {
        "value": "59132"
      },
      "questionnaire": {
        "reference": "urn:uuid:164306cf-cb8e-4015-8713-38e51ec6ca95"
      },
      "status": "completed",
      "subject": {
        "reference": "urn:uuid:42630117-d85b-4c1a-a18c-3f3e6c68842d"
      },
      "context": {
        "reference": "urn:uuid:3c5fd144-f9eb-4a8c-a09a-678506b58a2b"
      },
      "authored": "2021-04-06T11:33:34+00:00",
      "item": [ {
        "linkId": "Tx221039",
        "text": "PATIENT_AGEGROUP",
        "answer": [ {
          "valueString": "==\"CHILD\""
        } ]
      } ]
    }
  }, {
    "fullUrl": "urn:uuid:164306cf-cb8e-4015-8713-38e51ec6ca95",
    "resource": {
      "resourceType": "Questionnaire",
      "id": "164306cf-cb8e-4015-8713-38e51ec6ca95",
      "identifier": [ {
        "value": "59132"
      } ],
      "version": "2021-04-06T11:33:34.963Z",
      "status": "active",
      "experimental": false,
      "date": "2021-04-06T11:33:34+00:00",
      "publisher": "User ID: 'MCDONALDD' User name: 'Denzle McDonald' User skill set: 'T3'",
      "lastReviewDate": "2021-04-06",
      "subjectType": [ "Patient" ],
      "item": [ {
        "linkId": "59132",
        "prefix": "0",
        "text": "PATIENT_AGEGROUP",
        "type": "choice",
        "required": true,
        "repeats": false,
        "option": [ {
          "valueString": "==\"ADULT\", Selected: false"
        }, {
          "valueString": "==\"CHILD\", Selected: true"
        }, {
          "valueString": "==\"TODDLER\", Selected: false"
        }, {
          "valueString": "==\"INFANT\", Selected: false"
        }, {
          "valueString": "==\"NEONATE\", Selected: false"
        }, {
          "valueString": "*, Selected: false"
        } ]
      } ]
    }
  }, {
    "fullUrl": "urn:uuid:1c528af5-bca2-4dab-8361-0a55575a6c8a",
    "resource": {
      "resourceType": "QuestionnaireResponse",
      "id": "1c528af5-bca2-4dab-8361-0a55575a6c8a",
      "identifier": {
        "value": "59132"
      },
      "questionnaire": {
        "reference": "urn:uuid:fd113411-ae7b-45aa-931b-745d0da45965"
      },
      "status": "completed",
      "subject": {
        "reference": "urn:uuid:42630117-d85b-4c1a-a18c-3f3e6c68842d"
      },
      "context": {
        "reference": "urn:uuid:3c5fd144-f9eb-4a8c-a09a-678506b58a2b"
      },
      "authored": "2021-04-06T11:33:34+00:00",
      "item": [ {
        "linkId": "Tx224919",
        "text": "PATIENT_AGE",
        "answer": [ {
          "valueString": "<11"
        } ]
      } ]
    }
  }, {
    "fullUrl": "urn:uuid:fd113411-ae7b-45aa-931b-745d0da45965",
    "resource": {
      "resourceType": "Questionnaire",
      "id": "fd113411-ae7b-45aa-931b-745d0da45965",
      "identifier": [ {
        "value": "59132"
      } ],
      "version": "2021-04-06T11:33:34.963Z",
      "status": "active",
      "experimental": false,
      "date": "2021-04-06T11:33:34+00:00",
      "publisher": "User ID: 'MCDONALDD' User name: 'Denzle McDonald' User skill set: 'T3'",
      "lastReviewDate": "2021-04-06",
      "subjectType": [ "Patient" ],
      "item": [ {
        "linkId": "59132",
        "prefix": "15300",
        "text": "PATIENT_AGE",
        "type": "choice",
        "required": true,
        "repeats": false,
        "option": [ {
          "valueString": "<11, Selected: true"
        }, {
          "valueString": "<13, Selected: false"
        }, {
          "valueString": ">=13, Selected: false"
        }, {
          "valueString": "*, Selected: false"
        } ]
      } ]
    }
  }, {
    "fullUrl": "urn:uuid:a243381a-4ffa-42d5-9b55-421850d4996c",
    "resource": {
      "resourceType": "QuestionnaireResponse",
      "id": "a243381a-4ffa-42d5-9b55-421850d4996c",
      "identifier": {
        "value": "59132"
      },
      "questionnaire": {
        "reference": "urn:uuid:09981f5c-2968-44da-be7d-036b2f36d2c6"
      },
      "status": "completed",
      "subject": {
        "reference": "urn:uuid:42630117-d85b-4c1a-a18c-3f3e6c68842d"
      },
      "context": {
        "reference": "urn:uuid:3c5fd144-f9eb-4a8c-a09a-678506b58a2b"
      },
      "authored": "2021-04-06T11:33:34+00:00",
      "item": [ {
        "linkId": "Tx224498",
        "text": "STRING:Under11",
        "answer": [ {
          "valueString": "\"present\""
        } ]
      } ]
    }
  }, {
    "fullUrl": "urn:uuid:09981f5c-2968-44da-be7d-036b2f36d2c6",
    "resource": {
      "resourceType": "Questionnaire",
      "id": "09981f5c-2968-44da-be7d-036b2f36d2c6",
      "identifier": [ {
        "value": "59132"
      } ],
      "version": "2021-04-06T11:33:34.963Z",
      "status": "active",
      "experimental": false,
      "date": "2021-04-06T11:33:34+00:00",
      "publisher": "User ID: 'MCDONALDD' User name: 'Denzle McDonald' User skill set: 'T3'",
      "lastReviewDate": "2021-04-06",
      "subjectType": [ "Patient" ],
      "item": [ {
        "linkId": "59132",
        "prefix": "14800",
        "text": "STRING:Under11",
        "type": "choice",
        "required": true,
        "repeats": false,
        "option": [ {
          "valueString": "\"present\", Selected: true"
        } ]
      } ]
    }
  }, {
    "fullUrl": "urn:uuid:eaa18860-f07b-4390-9ab7-55d9f9dca1bc",
    "resource": {
      "resourceType": "QuestionnaireResponse",
      "id": "eaa18860-f07b-4390-9ab7-55d9f9dca1bc",
      "identifier": {
        "value": "59132"
      },
      "questionnaire": {
        "reference": "urn:uuid:4dac3299-62a7-4063-b415-e198ea398e05"
      },
      "status": "completed",
      "subject": {
        "reference": "urn:uuid:42630117-d85b-4c1a-a18c-3f3e6c68842d"
      },
      "context": {
        "reference": "urn:uuid:3c5fd144-f9eb-4a8c-a09a-678506b58a2b"
      },
      "authored": "2021-04-06T11:33:34+00:00",
      "item": [ {
        "linkId": "Tx224906",
        "text": "AbdominalPainPW",
        "answer": [ {
          "valueString": "*"
        } ]
      } ]
    }
  }, {
    "fullUrl": "urn:uuid:4dac3299-62a7-4063-b415-e198ea398e05",
    "resource": {
      "resourceType": "Questionnaire",
      "id": "4dac3299-62a7-4063-b415-e198ea398e05",
      "identifier": [ {
        "value": "59132"
      } ],
      "version": "2021-04-06T11:33:34.963Z",
      "status": "active",
      "experimental": false,
      "date": "2021-04-06T11:33:34+00:00",
      "publisher": "User ID: 'MCDONALDD' User name: 'Denzle McDonald' User skill set: 'T3'",
      "lastReviewDate": "2021-04-06",
      "subjectType": [ "Patient" ],
      "item": [ {
        "linkId": "59132",
        "prefix": "15600",
        "text": "AbdominalPainPW",
        "type": "choice",
        "required": true,
        "repeats": false,
        "option": [ {
          "valueString": "==\"present\", Selected: false"
        }, {
          "valueString": "*, Selected: true"
        } ]
      } ]
    }
  }, {
    "fullUrl": "urn:uuid:347e20e9-7d6b-4b3e-94d1-b2931158060b",
    "resource": {
      "resourceType": "QuestionnaireResponse",
      "id": "347e20e9-7d6b-4b3e-94d1-b2931158060b",
      "identifier": {
        "value": "59132"
      },
      "questionnaire": {
        "reference": "urn:uuid:7568c050-a422-4214-8290-11239fab9404"
      },
      "status": "completed",
      "subject": {
        "reference": "urn:uuid:42630117-d85b-4c1a-a18c-3f3e6c68842d"
      },
      "context": {
        "reference": "urn:uuid:3c5fd144-f9eb-4a8c-a09a-678506b58a2b"
      },
      "authored": "2021-04-06T11:33:34+00:00",
      "item": [ {
        "linkId": "Tx225151",
        "text": "RectalBleedingwithAbdominalPainPW",
        "answer": [ {
          "valueString": "*"
        } ]
      } ]
    }
  }, {
    "fullUrl": "urn:uuid:7568c050-a422-4214-8290-11239fab9404",
    "resource": {
      "resourceType": "Questionnaire",
      "id": "7568c050-a422-4214-8290-11239fab9404",
      "identifier": [ {
        "value": "59132"
      } ],
      "version": "2021-04-06T11:33:34.963Z",
      "status": "active",
      "experimental": false,
      "date": "2021-04-06T11:33:34+00:00",
      "publisher": "User ID: 'MCDONALDD' User name: 'Denzle McDonald' User skill set: 'T3'",
      "lastReviewDate": "2021-04-06",
      "subjectType": [ "Patient" ],
      "item": [ {
        "linkId": "59132",
        "prefix": "21300",
        "text": "RectalBleedingwithAbdominalPainPW",
        "type": "choice",
        "required": true,
        "repeats": false,
        "option": [ {
          "valueString": "==\"present\", Selected: false"
        }, {
          "valueString": "*, Selected: true"
        } ]
      } ]
    }
  }, {
    "fullUrl": "urn:uuid:b45cce22-abdf-404b-94a7-136124b570aa",
    "resource": {
      "resourceType": "QuestionnaireResponse",
      "id": "b45cce22-abdf-404b-94a7-136124b570aa",
      "identifier": {
        "value": "59132"
      },
      "questionnaire": {
        "reference": "urn:uuid:0127c68f-a778-4d9d-88d5-fbd7d6cc6037"
      },
      "status": "completed",
      "subject": {
        "reference": "urn:uuid:42630117-d85b-4c1a-a18c-3f3e6c68842d"
      },
      "context": {
        "reference": "urn:uuid:3c5fd144-f9eb-4a8c-a09a-678506b58a2b"
      },
      "authored": "2021-04-06T11:33:34+00:00",
      "item": [ {
        "linkId": "Tx224908",
        "text": "GITSymptomWithAbdominalPain",
        "answer": [ {
          "valueString": "==\"present\""
        } ]
      } ]
    }
  }, {
    "fullUrl": "urn:uuid:0127c68f-a778-4d9d-88d5-fbd7d6cc6037",
    "resource": {
      "resourceType": "Questionnaire",
      "id": "0127c68f-a778-4d9d-88d5-fbd7d6cc6037",
      "identifier": [ {
        "value": "59132"
      } ],
      "version": "2021-04-06T11:33:34.963Z",
      "status": "active",
      "experimental": false,
      "date": "2021-04-06T11:33:34+00:00",
      "publisher": "User ID: 'MCDONALDD' User name: 'Denzle McDonald' User skill set: 'T3'",
      "lastReviewDate": "2021-04-06",
      "subjectType": [ "Patient" ],
      "item": [ {
        "linkId": "59132",
        "prefix": "15700",
        "text": "GITSymptomWithAbdominalPain",
        "type": "choice",
        "required": true,
        "repeats": false,
        "option": [ {
          "valueString": "==\"present\", Selected: true"
        }, {
          "valueString": "*, Selected: false"
        } ]
      } ]
    }
  }, {
    "fullUrl": "urn:uuid:4187b498-b6e9-4391-8710-14de3341e50d",
    "resource": {
      "resourceType": "QuestionnaireResponse",
      "id": "4187b498-b6e9-4391-8710-14de3341e50d",
      "identifier": {
        "value": "59132"
      },
      "questionnaire": {
        "reference": "urn:uuid:f4a35a12-7c43-44f6-8a92-11da97bb8a21"
      },
      "status": "completed",
      "subject": {
        "reference": "urn:uuid:42630117-d85b-4c1a-a18c-3f3e6c68842d"
      },
      "context": {
        "reference": "urn:uuid:3c5fd144-f9eb-4a8c-a09a-678506b58a2b"
      },
      "authored": "2021-04-06T11:33:34+00:00"
    }
  }, {
    "fullUrl": "urn:uuid:f4a35a12-7c43-44f6-8a92-11da97bb8a21",
    "resource": {
      "resourceType": "Questionnaire",
      "id": "f4a35a12-7c43-44f6-8a92-11da97bb8a21",
      "identifier": [ {
        "value": "59132"
      } ],
      "version": "2021-04-06T11:33:34.963Z",
      "status": "active",
      "experimental": false,
      "date": "2021-04-06T11:33:34+00:00",
      "publisher": "User ID: 'MCDONALDD' User name: 'Denzle McDonald' User skill set: 'T3'",
      "lastReviewDate": "2021-04-06",
      "subjectType": [ "Patient" ]
    }
  }, {
    "fullUrl": "urn:uuid:1459df44-3127-4efd-911e-9c4ae9fe2c16",
    "resource": {
      "resourceType": "QuestionnaireResponse",
      "id": "1459df44-3127-4efd-911e-9c4ae9fe2c16",
      "identifier": {
        "value": "59132"
      },
      "questionnaire": {
        "reference": "urn:uuid:cb5fdbd7-4381-4fa2-a993-246820ec7b94"
      },
      "status": "completed",
      "subject": {
        "reference": "urn:uuid:42630117-d85b-4c1a-a18c-3f3e6c68842d"
      },
      "context": {
        "reference": "urn:uuid:3c5fd144-f9eb-4a8c-a09a-678506b58a2b"
      },
      "authored": "2021-04-06T11:33:34+00:00",
      "item": [ {
        "linkId": "Tx221039",
        "text": "PATIENT_AGEGROUP",
        "answer": [ {
          "valueString": "==\"CHILD\""
        } ]
      } ]
    }
  }, {
    "fullUrl": "urn:uuid:cb5fdbd7-4381-4fa2-a993-246820ec7b94",
    "resource": {
      "resourceType": "Questionnaire",
      "id": "cb5fdbd7-4381-4fa2-a993-246820ec7b94",
      "identifier": [ {
        "value": "59132"
      } ],
      "version": "2021-04-06T11:33:34.963Z",
      "status": "active",
      "experimental": false,
      "date": "2021-04-06T11:33:34+00:00",
      "publisher": "User ID: 'MCDONALDD' User name: 'Denzle McDonald' User skill set: 'T3'",
      "lastReviewDate": "2021-04-06",
      "subjectType": [ "Patient" ],
      "item": [ {
        "linkId": "59132",
        "prefix": "0",
        "text": "PATIENT_AGEGROUP",
        "type": "choice",
        "required": true,
        "repeats": false,
        "option": [ {
          "valueString": "==\"ADULT\", Selected: false"
        }, {
          "valueString": "==\"CHILD\", Selected: true"
        }, {
          "valueString": "==\"TODDLER\", Selected: false"
        }, {
          "valueString": "==\"INFANT\", Selected: false"
        }, {
          "valueString": "==\"NEONATE\", Selected: false"
        }, {
          "valueString": "*, Selected: false"
        } ]
      } ]
    }
  }, {
    "fullUrl": "urn:uuid:5f47cad7-620e-4dbd-9736-41b556211a91",
    "resource": {
      "resourceType": "QuestionnaireResponse",
      "id": "5f47cad7-620e-4dbd-9736-41b556211a91",
      "identifier": {
        "value": "59132"
      },
      "questionnaire": {
        "reference": "urn:uuid:67aa3b96-dd4d-40ce-ba67-431d048a99a8"
      },
      "status": "completed",
      "subject": {
        "reference": "urn:uuid:42630117-d85b-4c1a-a18c-3f3e6c68842d"
      },
      "context": {
        "reference": "urn:uuid:3c5fd144-f9eb-4a8c-a09a-678506b58a2b"
      },
      "authored": "2021-04-06T11:33:34+00:00",
      "item": [ {
        "linkId": "Tx220156",
        "text": "How bad is the pain?",
        "answer": [ {
          "valueString": "bad enough to interfere with normal activity"
        } ]
      } ]
    }
  }, {
    "fullUrl": "urn:uuid:67aa3b96-dd4d-40ce-ba67-431d048a99a8",
    "resource": {
      "resourceType": "Questionnaire",
      "id": "67aa3b96-dd4d-40ce-ba67-431d048a99a8",
      "identifier": [ {
        "value": "59132"
      } ],
      "version": "2021-04-06T11:33:34.963Z",
      "status": "active",
      "experimental": false,
      "date": "2021-04-06T11:33:34+00:00",
      "publisher": "User ID: 'MCDONALDD' User name: 'Denzle McDonald' User skill set: 'T3'",
      "lastReviewDate": "2021-04-06",
      "subjectType": [ "Patient" ],
      "item": [ {
        "linkId": "59132",
        "prefix": "6500",
        "text": "How bad is the pain?",
        "type": "choice",
        "required": true,
        "repeats": false,
        "option": [ {
          "valueString": "so bad that doing anything is impossible, Selected: false"
        }, {
          "valueString": "bad enough to interfere with normal activity, Selected: true"
        }, {
          "valueString": "neither of the above, Selected: false"
        } ]
      } ]
    }
  }, {
    "fullUrl": "urn:uuid:6d6c5f38-23de-4410-9bef-4e6943321307",
    "resource": {
      "resourceType": "QuestionnaireResponse",
      "id": "6d6c5f38-23de-4410-9bef-4e6943321307",
      "identifier": {
        "value": "59132"
      },
      "questionnaire": {
        "reference": "urn:uuid:6a544b09-1606-4577-9111-8b3cfb5195bb"
      },
      "status": "completed",
      "subject": {
        "reference": "urn:uuid:42630117-d85b-4c1a-a18c-3f3e6c68842d"
      },
      "context": {
        "reference": "urn:uuid:3c5fd144-f9eb-4a8c-a09a-678506b58a2b"
      },
      "authored": "2021-04-06T11:33:34+00:00",
      "item": [ {
        "linkId": "Tx224664",
        "text": "STRING:ModeratePain",
        "answer": [ {
          "valueString": "\"present\""
        } ]
      } ]
    }
  }, {
    "fullUrl": "urn:uuid:6a544b09-1606-4577-9111-8b3cfb5195bb",
    "resource": {
      "resourceType": "Questionnaire",
      "id": "6a544b09-1606-4577-9111-8b3cfb5195bb",
      "identifier": [ {
        "value": "59132"
      } ],
      "version": "2021-04-06T11:33:34.963Z",
      "status": "active",
      "experimental": false,
      "date": "2021-04-06T11:33:34+00:00",
      "publisher": "User ID: 'MCDONALDD' User name: 'Denzle McDonald' User skill set: 'T3'",
      "lastReviewDate": "2021-04-06",
      "subjectType": [ "Patient" ],
      "item": [ {
        "linkId": "59132",
        "prefix": "6600",
        "text": "STRING:ModeratePain",
        "type": "choice",
        "required": true,
        "repeats": false,
        "option": [ {
          "valueString": "\"present\", Selected: true"
        } ]
      } ]
    }
  }, {
    "fullUrl": "urn:uuid:3c4aa80f-3b84-4d83-b0be-3db02820f110",
    "resource": {
      "resourceType": "QuestionnaireResponse",
      "id": "3c4aa80f-3b84-4d83-b0be-3db02820f110",
      "identifier": {
        "value": "59132"
      },
      "questionnaire": {
        "reference": "urn:uuid:d79a757a-8db7-4490-8501-93097ba0ba1b"
      },
      "status": "completed",
      "subject": {
        "reference": "urn:uuid:42630117-d85b-4c1a-a18c-3f3e6c68842d"
      },
      "context": {
        "reference": "urn:uuid:3c5fd144-f9eb-4a8c-a09a-678506b58a2b"
      },
      "authored": "2021-04-06T11:33:34+00:00",
      "item": [ {
        "linkId": "Tx170003",
        "text": "PATIENT_PARTY",
        "answer": [ {
          "valueString": "==1"
        } ]
      } ]
    }
  }, {
    "fullUrl": "urn:uuid:d79a757a-8db7-4490-8501-93097ba0ba1b",
    "resource": {
      "resourceType": "Questionnaire",
      "id": "d79a757a-8db7-4490-8501-93097ba0ba1b",
      "identifier": [ {
        "value": "59132"
      } ],
      "version": "2021-04-06T11:33:34.963Z",
      "status": "active",
      "experimental": false,
      "date": "2021-04-06T11:33:34+00:00",
      "publisher": "User ID: 'MCDONALDD' User name: 'Denzle McDonald' User skill set: 'T3'",
      "lastReviewDate": "2021-04-06",
      "subjectType": [ "Patient" ],
      "item": [ {
        "linkId": "59132",
        "prefix": "6800",
        "text": "PATIENT_PARTY",
        "type": "choice",
        "required": true,
        "repeats": false,
        "option": [ {
          "valueString": "==1, Selected: true"
        }, {
          "valueString": "==3, Selected: false"
        }, {
          "valueString": "*, Selected: false"
        } ]
      } ]
    }
  }, {
    "fullUrl": "urn:uuid:69ed69e7-f5c3-4bfc-be5c-0cf10b79c436",
    "resource": {
      "resourceType": "QuestionnaireResponse",
      "id": "69ed69e7-f5c3-4bfc-be5c-0cf10b79c436",
      "identifier": {
        "value": "59132"
      },
      "questionnaire": {
        "reference": "urn:uuid:50824196-b48e-4a92-8d8b-9e9ca7093dc1"
      },
      "status": "completed",
      "subject": {
        "reference": "urn:uuid:42630117-d85b-4c1a-a18c-3f3e6c68842d"
      },
      "context": {
        "reference": "urn:uuid:3c5fd144-f9eb-4a8c-a09a-678506b58a2b"
      },
      "authored": "2021-04-06T11:33:34+00:00",
      "item": [ {
        "linkId": "Tx224190",
        "text": "Are you so ill that you have stopped doing ALL of your usual activities?",
        "answer": [ {
          "valueString": "no - well enough to do MOST or all activities"
        } ]
      } ]
    }
  }, {
    "fullUrl": "urn:uuid:50824196-b48e-4a92-8d8b-9e9ca7093dc1",
    "resource": {
      "resourceType": "Questionnaire",
      "id": "50824196-b48e-4a92-8d8b-9e9ca7093dc1",
      "identifier": [ {
        "value": "59132"
      } ],
      "version": "2021-04-06T11:33:34.963Z",
      "status": "active",
      "experimental": false,
      "date": "2021-04-06T11:33:34+00:00",
      "publisher": "User ID: 'MCDONALDD' User name: 'Denzle McDonald' User skill set: 'T3'",
      "lastReviewDate": "2021-04-06",
      "subjectType": [ "Patient" ],
      "item": [ {
        "linkId": "59132",
        "prefix": "6900",
        "text": "Are you so ill that you have stopped doing ALL of your usual activities?",
        "type": "choice",
        "required": true,
        "repeats": false,
        "option": [ {
          "valueString": "yes - so ill they have stopped doing ALL normal activities, Selected: false"
        }, {
          "valueString": "no - unwell but able to do SOME normal activities, Selected: false"
        }, {
          "valueString": "no - well enough to do MOST or all activities, Selected: true"
        } ]
      } ]
    }
  }, {
    "fullUrl": "urn:uuid:39a08a32-d788-4893-9e1c-916466acdc1c",
    "resource": {
      "resourceType": "QuestionnaireResponse",
      "id": "39a08a32-d788-4893-9e1c-916466acdc1c",
      "identifier": {
        "value": "59132"
      },
      "questionnaire": {
        "reference": "urn:uuid:359be46d-260c-4366-a06c-9901a77af07c"
      },
      "status": "completed",
      "subject": {
        "reference": "urn:uuid:42630117-d85b-4c1a-a18c-3f3e6c68842d"
      },
      "context": {
        "reference": "urn:uuid:3c5fd144-f9eb-4a8c-a09a-678506b58a2b"
      },
      "authored": "2021-04-06T11:33:34+00:00",
      "item": [ {
        "linkId": "Tx224916",
        "text": "FlankPainPW",
        "answer": [ {
          "valueString": "*"
        } ]
      } ]
    }
  }, {
    "fullUrl": "urn:uuid:359be46d-260c-4366-a06c-9901a77af07c",
    "resource": {
      "resourceType": "Questionnaire",
      "id": "359be46d-260c-4366-a06c-9901a77af07c",
      "identifier": [ {
        "value": "59132"
      } ],
      "version": "2021-04-06T11:33:34.963Z",
      "status": "active",
      "experimental": false,
      "date": "2021-04-06T11:33:34+00:00",
      "publisher": "User ID: 'MCDONALDD' User name: 'Denzle McDonald' User skill set: 'T3'",
      "lastReviewDate": "2021-04-06",
      "subjectType": [ "Patient" ],
      "item": [ {
        "linkId": "59132",
        "prefix": "26500",
        "text": "FlankPainPW",
        "type": "choice",
        "required": true,
        "repeats": false,
        "option": [ {
          "valueString": "==\"present\", Selected: false"
        }, {
          "valueString": "*, Selected: true"
        } ]
      } ]
    }
  }, {
    "fullUrl": "urn:uuid:3e071ef1-a9bb-48b3-81f1-9a603c354d9b",
    "resource": {
      "resourceType": "QuestionnaireResponse",
      "id": "3e071ef1-a9bb-48b3-81f1-9a603c354d9b",
      "identifier": {
        "value": "59132"
      },
      "questionnaire": {
        "reference": "urn:uuid:519f338f-2c5f-46b6-9d5f-7ab45c93e4cd"
      },
      "status": "completed",
      "subject": {
        "reference": "urn:uuid:42630117-d85b-4c1a-a18c-3f3e6c68842d"
      },
      "context": {
        "reference": "urn:uuid:3c5fd144-f9eb-4a8c-a09a-678506b58a2b"
      },
      "authored": "2021-04-06T11:33:34+00:00",
      "item": [ {
        "linkId": "Tx222766",
        "text": "PregnancyOver20Weeks",
        "answer": [ {
          "valueString": "*"
        } ]
      } ]
    }
  }, {
    "fullUrl": "urn:uuid:519f338f-2c5f-46b6-9d5f-7ab45c93e4cd",
    "resource": {
      "resourceType": "Questionnaire",
      "id": "519f338f-2c5f-46b6-9d5f-7ab45c93e4cd",
      "identifier": [ {
        "value": "59132"
      } ],
      "version": "2021-04-06T11:33:34.963Z",
      "status": "active",
      "experimental": false,
      "date": "2021-04-06T11:33:34+00:00",
      "publisher": "User ID: 'MCDONALDD' User name: 'Denzle McDonald' User skill set: 'T3'",
      "lastReviewDate": "2021-04-06",
      "subjectType": [ "Patient" ],
      "item": [ {
        "linkId": "59132",
        "prefix": "16100",
        "text": "PregnancyOver20Weeks",
        "type": "choice",
        "required": true,
        "repeats": false,
        "option": [ {
          "valueString": "==\"present\", Selected: false"
        }, {
          "valueString": "*, Selected: true"
        } ]
      } ]
    }
  }, {
    "fullUrl": "urn:uuid:c9abcb21-fb80-499c-b2c8-2a17fc8cef68",
    "resource": {
      "resourceType": "QuestionnaireResponse",
      "id": "c9abcb21-fb80-499c-b2c8-2a17fc8cef68",
      "identifier": {
        "value": "59132"
      },
      "questionnaire": {
        "reference": "urn:uuid:95d4ec09-e516-452c-be23-d882c7180127"
      },
      "status": "completed",
      "subject": {
        "reference": "urn:uuid:42630117-d85b-4c1a-a18c-3f3e6c68842d"
      },
      "context": {
        "reference": "urn:uuid:3c5fd144-f9eb-4a8c-a09a-678506b58a2b"
      },
      "authored": "2021-04-06T11:33:34+00:00",
      "item": [ {
        "linkId": "Tx225151",
        "text": "RectalBleedingwithAbdominalPainPW",
        "answer": [ {
          "valueString": "*"
        } ]
      } ]
    }
  }, {
    "fullUrl": "urn:uuid:95d4ec09-e516-452c-be23-d882c7180127",
    "resource": {
      "resourceType": "Questionnaire",
      "id": "95d4ec09-e516-452c-be23-d882c7180127",
      "identifier": [ {
        "value": "59132"
      } ],
      "version": "2021-04-06T11:33:34.963Z",
      "status": "active",
      "experimental": false,
      "date": "2021-04-06T11:33:34+00:00",
      "publisher": "User ID: 'MCDONALDD' User name: 'Denzle McDonald' User skill set: 'T3'",
      "lastReviewDate": "2021-04-06",
      "subjectType": [ "Patient" ],
      "item": [ {
        "linkId": "59132",
        "prefix": "26200",
        "text": "RectalBleedingwithAbdominalPainPW",
        "type": "choice",
        "required": true,
        "repeats": false,
        "option": [ {
          "valueString": "==\"present\", Selected: false"
        }, {
          "valueString": "*, Selected: true"
        } ]
      } ]
    }
  }, {
    "fullUrl": "urn:uuid:2a9ae99d-7479-4127-b495-ac9897afa78e",
    "resource": {
      "resourceType": "QuestionnaireResponse",
      "id": "2a9ae99d-7479-4127-b495-ac9897afa78e",
      "identifier": {
        "value": "59132"
      },
      "questionnaire": {
        "reference": "urn:uuid:ea895aa3-20d9-4663-8d73-4967e76f6737"
      },
      "status": "completed",
      "subject": {
        "reference": "urn:uuid:42630117-d85b-4c1a-a18c-3f3e6c68842d"
      },
      "context": {
        "reference": "urn:uuid:3c5fd144-f9eb-4a8c-a09a-678506b58a2b"
      },
      "authored": "2021-04-06T11:33:34+00:00",
      "item": [ {
        "linkId": "Tx221119",
        "text": "SeverelyIll",
        "answer": [ {
          "valueString": "*"
        } ]
      } ]
    }
  }, {
    "fullUrl": "urn:uuid:ea895aa3-20d9-4663-8d73-4967e76f6737",
    "resource": {
      "resourceType": "Questionnaire",
      "id": "ea895aa3-20d9-4663-8d73-4967e76f6737",
      "identifier": [ {
        "value": "59132"
      } ],
      "version": "2021-04-06T11:33:34.963Z",
      "status": "active",
      "experimental": false,
      "date": "2021-04-06T11:33:34+00:00",
      "publisher": "User ID: 'MCDONALDD' User name: 'Denzle McDonald' User skill set: 'T3'",
      "lastReviewDate": "2021-04-06",
      "subjectType": [ "Patient" ],
      "item": [ {
        "linkId": "59132",
        "prefix": "7500",
        "text": "SeverelyIll",
        "type": "choice",
        "required": true,
        "repeats": false,
        "option": [ {
          "valueString": "==\"present\", Selected: false"
        }, {
          "valueString": "*, Selected: true"
        } ]
      } ]
    }
  }, {
    "fullUrl": "urn:uuid:73f034aa-69b0-4233-8f76-14301646b45e",
    "resource": {
      "resourceType": "QuestionnaireResponse",
      "id": "73f034aa-69b0-4233-8f76-14301646b45e",
      "identifier": {
        "value": "59132"
      },
      "questionnaire": {
        "reference": "urn:uuid:9fae2fc6-c39c-4e84-b9d3-e163950edc81"
      },
      "status": "completed",
      "subject": {
        "reference": "urn:uuid:42630117-d85b-4c1a-a18c-3f3e6c68842d"
      },
      "context": {
        "reference": "urn:uuid:3c5fd144-f9eb-4a8c-a09a-678506b58a2b"
      },
      "authored": "2021-04-06T11:33:34+00:00",
      "item": [ {
        "linkId": "Tx224934",
        "text": "GroinPainOrSwellingPWAbdominalPainPW",
        "answer": [ {
          "valueString": "*"
        } ]
      } ]
    }
  }, {
    "fullUrl": "urn:uuid:9fae2fc6-c39c-4e84-b9d3-e163950edc81",
    "resource": {
      "resourceType": "Questionnaire",
      "id": "9fae2fc6-c39c-4e84-b9d3-e163950edc81",
      "identifier": [ {
        "value": "59132"
      } ],
      "version": "2021-04-06T11:33:34.963Z",
      "status": "active",
      "experimental": false,
      "date": "2021-04-06T11:33:34+00:00",
      "publisher": "User ID: 'MCDONALDD' User name: 'Denzle McDonald' User skill set: 'T3'",
      "lastReviewDate": "2021-04-06",
      "subjectType": [ "Patient" ],
      "item": [ {
        "linkId": "59132",
        "prefix": "23300",
        "text": "GroinPainOrSwellingPWAbdominalPainPW",
        "type": "choice",
        "required": true,
        "repeats": false,
        "option": [ {
          "valueString": "==\"present\", Selected: false"
        }, {
          "valueString": "*, Selected: true"
        } ]
      } ]
    }
  }, {
    "fullUrl": "urn:uuid:6c126cbb-d7af-4e76-9214-38ae4909741e",
    "resource": {
      "resourceType": "QuestionnaireResponse",
      "id": "6c126cbb-d7af-4e76-9214-38ae4909741e",
      "identifier": {
        "value": "59132"
      },
      "questionnaire": {
        "reference": "urn:uuid:1fcc7509-066b-43e4-82ce-9ee92b714c2a"
      },
      "status": "completed",
      "subject": {
        "reference": "urn:uuid:42630117-d85b-4c1a-a18c-3f3e6c68842d"
      },
      "context": {
        "reference": "urn:uuid:3c5fd144-f9eb-4a8c-a09a-678506b58a2b"
      },
      "authored": "2021-04-06T11:33:34+00:00",
      "item": [ {
        "linkId": "Tx224906",
        "text": "AbdominalPainPW",
        "answer": [ {
          "valueString": "*"
        } ]
      } ]
    }
  }, {
    "fullUrl": "urn:uuid:1fcc7509-066b-43e4-82ce-9ee92b714c2a",
    "resource": {
      "resourceType": "Questionnaire",
      "id": "1fcc7509-066b-43e4-82ce-9ee92b714c2a",
      "identifier": [ {
        "value": "59132"
      } ],
      "version": "2021-04-06T11:33:34.963Z",
      "status": "active",
      "experimental": false,
      "date": "2021-04-06T11:33:34+00:00",
      "publisher": "User ID: 'MCDONALDD' User name: 'Denzle McDonald' User skill set: 'T3'",
      "lastReviewDate": "2021-04-06",
      "subjectType": [ "Patient" ],
      "item": [ {
        "linkId": "59132",
        "prefix": "23400",
        "text": "AbdominalPainPW",
        "type": "choice",
        "required": true,
        "repeats": false,
        "option": [ {
          "valueString": "==\"present\", Selected: false"
        }, {
          "valueString": "*, Selected: true"
        } ]
      } ]
    }
  }, {
    "fullUrl": "urn:uuid:a0c1b729-000b-44bc-a7c8-da6b1db1c10a",
    "resource": {
      "resourceType": "QuestionnaireResponse",
      "id": "a0c1b729-000b-44bc-a7c8-da6b1db1c10a",
      "identifier": {
        "value": "59132"
      },
      "questionnaire": {
        "reference": "urn:uuid:80f76659-b550-4595-b742-ea98f15be9d6"
      },
      "status": "completed",
      "subject": {
        "reference": "urn:uuid:42630117-d85b-4c1a-a18c-3f3e6c68842d"
      },
      "context": {
        "reference": "urn:uuid:3c5fd144-f9eb-4a8c-a09a-678506b58a2b"
      },
      "authored": "2021-04-06T11:33:34+00:00",
      "item": [ {
        "linkId": "Tx224928",
        "text": "VomitingAnd/OrNauseaWithAbdominalPainPW",
        "answer": [ {
          "valueString": "==\"present\""
        } ]
      } ]
    }
  }, {
    "fullUrl": "urn:uuid:80f76659-b550-4595-b742-ea98f15be9d6",
    "resource": {
      "resourceType": "Questionnaire",
      "id": "80f76659-b550-4595-b742-ea98f15be9d6",
      "identifier": [ {
        "value": "59132"
      } ],
      "version": "2021-04-06T11:33:34.963Z",
      "status": "active",
      "experimental": false,
      "date": "2021-04-06T11:33:34+00:00",
      "publisher": "User ID: 'MCDONALDD' User name: 'Denzle McDonald' User skill set: 'T3'",
      "lastReviewDate": "2021-04-06",
      "subjectType": [ "Patient" ],
      "item": [ {
        "linkId": "59132",
        "prefix": "23500",
        "text": "VomitingAnd/OrNauseaWithAbdominalPainPW",
        "type": "choice",
        "required": true,
        "repeats": false,
        "option": [ {
          "valueString": "==\"present\", Selected: true"
        }, {
          "valueString": "*, Selected: false"
        } ]
      } ]
    }
  }, {
    "fullUrl": "urn:uuid:636802a3-2eca-4a7a-9640-557f94b951d6",
    "resource": {
      "resourceType": "QuestionnaireResponse",
      "id": "636802a3-2eca-4a7a-9640-557f94b951d6",
      "identifier": {
        "value": "59132"
      },
      "questionnaire": {
        "reference": "urn:uuid:fd425cba-80cc-4cb3-af7f-01811e21d749"
      },
      "status": "completed",
      "subject": {
        "reference": "urn:uuid:42630117-d85b-4c1a-a18c-3f3e6c68842d"
      },
      "context": {
        "reference": "urn:uuid:3c5fd144-f9eb-4a8c-a09a-678506b58a2b"
      },
      "authored": "2021-04-06T11:33:34+00:00",
      "item": [ {
        "linkId": "Tx221017",
        "text": "PATIENT_GENDER",
        "answer": [ {
          "valueString": "==\"F\""
        } ]
      } ]
    }
  }, {
    "fullUrl": "urn:uuid:fd425cba-80cc-4cb3-af7f-01811e21d749",
    "resource": {
      "resourceType": "Questionnaire",
      "id": "fd425cba-80cc-4cb3-af7f-01811e21d749",
      "identifier": [ {
        "value": "59132"
      } ],
      "version": "2021-04-06T11:33:34.963Z",
      "status": "active",
      "experimental": false,
      "date": "2021-04-06T11:33:34+00:00",
      "publisher": "User ID: 'MCDONALDD' User name: 'Denzle McDonald' User skill set: 'T3'",
      "lastReviewDate": "2021-04-06",
      "subjectType": [ "Patient" ],
      "item": [ {
        "linkId": "59132",
        "prefix": "9000",
        "text": "PATIENT_GENDER",
        "type": "choice",
        "required": true,
        "repeats": false,
        "option": [ {
          "valueString": "==\"M\", Selected: false"
        }, {
          "valueString": "==\"F\", Selected: true"
        }, {
          "valueString": "==\"U\", Selected: false"
        }, {
          "valueString": "*, Selected: false"
        } ]
      } ]
    }
  }, {
    "fullUrl": "urn:uuid:82082d6b-1bad-4384-8cbf-6f96d84fb0bd",
    "resource": {
      "resourceType": "QuestionnaireResponse",
      "id": "82082d6b-1bad-4384-8cbf-6f96d84fb0bd",
      "identifier": {
        "value": "59132"
      },
      "questionnaire": {
        "reference": "urn:uuid:531ea51b-2056-42c8-953e-fa644378e8f1"
      },
      "status": "completed",
      "subject": {
        "reference": "urn:uuid:42630117-d85b-4c1a-a18c-3f3e6c68842d"
      },
      "context": {
        "reference": "urn:uuid:3c5fd144-f9eb-4a8c-a09a-678506b58a2b"
      },
      "authored": "2021-04-06T11:33:34+00:00"
    }
  }, {
    "fullUrl": "urn:uuid:531ea51b-2056-42c8-953e-fa644378e8f1",
    "resource": {
      "resourceType": "Questionnaire",
      "id": "531ea51b-2056-42c8-953e-fa644378e8f1",
      "identifier": [ {
        "value": "59132"
      } ],
      "version": "2021-04-06T11:33:34.963Z",
      "status": "active",
      "experimental": false,
      "date": "2021-04-06T11:33:34+00:00",
      "publisher": "User ID: 'MCDONALDD' User name: 'Denzle McDonald' User skill set: 'T3'",
      "lastReviewDate": "2021-04-06",
      "subjectType": [ "Patient" ]
    }
  }, {
    "fullUrl": "urn:uuid:9dcb3fb1-9bf3-4762-8f6e-1c0d1cc4d631",
    "resource": {
      "resourceType": "QuestionnaireResponse",
      "id": "9dcb3fb1-9bf3-4762-8f6e-1c0d1cc4d631",
      "identifier": {
        "value": "59132"
      },
      "questionnaire": {
        "reference": "urn:uuid:4bef3e16-e6a5-4996-b95a-393a8fcc263f"
      },
      "status": "completed",
      "subject": {
        "reference": "urn:uuid:42630117-d85b-4c1a-a18c-3f3e6c68842d"
      },
      "context": {
        "reference": "urn:uuid:3c5fd144-f9eb-4a8c-a09a-678506b58a2b"
      },
      "authored": "2021-04-06T11:33:34+00:00",
      "item": [ {
        "linkId": "Tx221114",
        "text": "Pregnancy",
        "answer": [ {
          "valueString": "*"
        } ]
      } ]
    }
  }, {
    "fullUrl": "urn:uuid:4bef3e16-e6a5-4996-b95a-393a8fcc263f",
    "resource": {
      "resourceType": "Questionnaire",
      "id": "4bef3e16-e6a5-4996-b95a-393a8fcc263f",
      "identifier": [ {
        "value": "59132"
      } ],
      "version": "2021-04-06T11:33:34.963Z",
      "status": "active",
      "experimental": false,
      "date": "2021-04-06T11:33:34+00:00",
      "publisher": "User ID: 'MCDONALDD' User name: 'Denzle McDonald' User skill set: 'T3'",
      "lastReviewDate": "2021-04-06",
      "subjectType": [ "Patient" ],
      "item": [ {
        "linkId": "59132",
        "prefix": "64500",
        "text": "Pregnancy",
        "type": "choice",
        "required": true,
        "repeats": false,
        "option": [ {
          "valueString": "==\"present\", Selected: false"
        }, {
          "valueString": "*, Selected: true"
        } ]
      } ]
    }
  }, {
    "fullUrl": "urn:uuid:dbc1cd6a-ea72-4839-a18b-3a2f6a30cc27",
    "resource": {
      "resourceType": "QuestionnaireResponse",
      "id": "dbc1cd6a-ea72-4839-a18b-3a2f6a30cc27",
      "identifier": {
        "value": "59132"
      },
      "questionnaire": {
        "reference": "urn:uuid:05756572-5a5b-41c1-b858-425b0dc8aaf8"
      },
      "status": "completed",
      "subject": {
        "reference": "urn:uuid:42630117-d85b-4c1a-a18c-3f3e6c68842d"
      },
      "context": {
        "reference": "urn:uuid:3c5fd144-f9eb-4a8c-a09a-678506b58a2b"
      },
      "authored": "2021-04-06T11:33:34+00:00",
      "item": [ {
        "linkId": "Tx221338",
        "text": ">=11yearsConfirmed",
        "answer": [ {
          "valueString": "*"
        } ]
      } ]
    }
  }, {
    "fullUrl": "urn:uuid:05756572-5a5b-41c1-b858-425b0dc8aaf8",
    "resource": {
      "resourceType": "Questionnaire",
      "id": "05756572-5a5b-41c1-b858-425b0dc8aaf8",
      "identifier": [ {
        "value": "59132"
      } ],
      "version": "2021-04-06T11:33:34.963Z",
      "status": "active",
      "experimental": false,
      "date": "2021-04-06T11:33:34+00:00",
      "publisher": "User ID: 'MCDONALDD' User name: 'Denzle McDonald' User skill set: 'T3'",
      "lastReviewDate": "2021-04-06",
      "subjectType": [ "Patient" ],
      "item": [ {
        "linkId": "59132",
        "prefix": "65600",
        "text": ">=11yearsConfirmed",
        "type": "choice",
        "required": true,
        "repeats": false,
        "option": [ {
          "valueString": "==\"present\", Selected: false"
        }, {
          "valueString": "*, Selected: true"
        } ]
      } ]
    }
  }, {
    "fullUrl": "urn:uuid:e6d5919a-0664-4b75-b754-93a66e60fd7a",
    "resource": {
      "resourceType": "QuestionnaireResponse",
      "id": "e6d5919a-0664-4b75-b754-93a66e60fd7a",
      "identifier": {
        "value": "59132"
      },
      "questionnaire": {
        "reference": "urn:uuid:59a1bd69-5f48-42d2-8a79-29c09c4fc706"
      },
      "status": "completed",
      "subject": {
        "reference": "urn:uuid:42630117-d85b-4c1a-a18c-3f3e6c68842d"
      },
      "context": {
        "reference": "urn:uuid:3c5fd144-f9eb-4a8c-a09a-678506b58a2b"
      },
      "authored": "2021-04-06T11:33:34+00:00",
      "item": [ {
        "linkId": "Tx221119",
        "text": "SeverelyIll",
        "answer": [ {
          "valueString": "*"
        } ]
      } ]
    }
  }, {
    "fullUrl": "urn:uuid:59a1bd69-5f48-42d2-8a79-29c09c4fc706",
    "resource": {
      "resourceType": "Questionnaire",
      "id": "59a1bd69-5f48-42d2-8a79-29c09c4fc706",
      "identifier": [ {
        "value": "59132"
      } ],
      "version": "2021-04-06T11:33:34.963Z",
      "status": "active",
      "experimental": false,
      "date": "2021-04-06T11:33:34+00:00",
      "publisher": "User ID: 'MCDONALDD' User name: 'Denzle McDonald' User skill set: 'T3'",
      "lastReviewDate": "2021-04-06",
      "subjectType": [ "Patient" ],
      "item": [ {
        "linkId": "59132",
        "prefix": "46200",
        "text": "SeverelyIll",
        "type": "choice",
        "required": true,
        "repeats": false,
        "option": [ {
          "valueString": "==\"present\", Selected: false"
        }, {
          "valueString": "*, Selected: true"
        } ]
      } ]
    }
  }, {
    "fullUrl": "urn:uuid:3bfa3a9f-ccaf-44df-9a4b-1ee721650936",
    "resource": {
      "resourceType": "QuestionnaireResponse",
      "id": "3bfa3a9f-ccaf-44df-9a4b-1ee721650936",
      "identifier": {
        "value": "59132"
      },
      "questionnaire": {
        "reference": "urn:uuid:2af64a52-f6d6-42ca-afae-bc086b0256fa"
      },
      "status": "completed",
      "subject": {
        "reference": "urn:uuid:42630117-d85b-4c1a-a18c-3f3e6c68842d"
      },
      "context": {
        "reference": "urn:uuid:3c5fd144-f9eb-4a8c-a09a-678506b58a2b"
      },
      "authored": "2021-04-06T11:33:34+00:00",
      "item": [ {
        "linkId": "Tx220947",
        "text": "SeverePain",
        "answer": [ {
          "valueString": "*"
        } ]
      } ]
    }
  }, {
    "fullUrl": "urn:uuid:2af64a52-f6d6-42ca-afae-bc086b0256fa",
    "resource": {
      "resourceType": "Questionnaire",
      "id": "2af64a52-f6d6-42ca-afae-bc086b0256fa",
      "identifier": [ {
        "value": "59132"
      } ],
      "version": "2021-04-06T11:33:34.963Z",
      "status": "active",
      "experimental": false,
      "date": "2021-04-06T11:33:34+00:00",
      "publisher": "User ID: 'MCDONALDD' User name: 'Denzle McDonald' User skill set: 'T3'",
      "lastReviewDate": "2021-04-06",
      "subjectType": [ "Patient" ],
      "item": [ {
        "linkId": "59132",
        "prefix": "64600",
        "text": "SeverePain",
        "type": "choice",
        "required": true,
        "repeats": false,
        "option": [ {
          "valueString": "==\"present\", Selected: false"
        }, {
          "valueString": "*, Selected: true"
        } ]
      } ]
    }
  }, {
    "fullUrl": "urn:uuid:8c524a2c-5fb4-4f80-a445-c0e7dc6640f3",
    "resource": {
      "resourceType": "QuestionnaireResponse",
      "id": "8c524a2c-5fb4-4f80-a445-c0e7dc6640f3",
      "identifier": {
        "value": "59132"
      },
      "questionnaire": {
        "reference": "urn:uuid:769c8fcd-3bb2-4ba6-9674-0388afc0f733"
      },
      "status": "completed",
      "subject": {
        "reference": "urn:uuid:42630117-d85b-4c1a-a18c-3f3e6c68842d"
      },
      "context": {
        "reference": "urn:uuid:3c5fd144-f9eb-4a8c-a09a-678506b58a2b"
      },
      "authored": "2021-04-06T11:33:34+00:00",
      "item": [ {
        "linkId": "Tx220114",
        "text": "Have you taken anything that might be harmful or poisonous?",
        "answer": [ {
          "valueString": "no"
        } ]
      } ]
    }
  }, {
    "fullUrl": "urn:uuid:769c8fcd-3bb2-4ba6-9674-0388afc0f733",
    "resource": {
      "resourceType": "Questionnaire",
      "id": "769c8fcd-3bb2-4ba6-9674-0388afc0f733",
      "identifier": [ {
        "value": "59132"
      } ],
      "version": "2021-04-06T11:33:34.963Z",
      "status": "active",
      "experimental": false,
      "date": "2021-04-06T11:33:34+00:00",
      "publisher": "User ID: 'MCDONALDD' User name: 'Denzle McDonald' User skill set: 'T3'",
      "lastReviewDate": "2021-04-06",
      "subjectType": [ "Patient" ],
      "item": [ {
        "linkId": "59132",
        "prefix": "30300",
        "text": "Have you taken anything that might be harmful or poisonous?",
        "type": "choice",
        "required": true,
        "repeats": false,
        "option": [ {
          "valueString": "yes (specify substance if known), Selected: false"
        }, {
          "valueString": "not sure, Selected: false"
        }, {
          "valueString": "no, Selected: true"
        } ]
      } ]
    }
  }, {
    "fullUrl": "urn:uuid:fa9f92dd-a200-4112-9aab-3c6f61a47d7a",
    "resource": {
      "resourceType": "QuestionnaireResponse",
      "id": "fa9f92dd-a200-4112-9aab-3c6f61a47d7a",
      "identifier": {
        "value": "59132"
      },
      "questionnaire": {
        "reference": "urn:uuid:7bbdbe06-ebcf-4856-a963-186fb51d4579"
      },
      "status": "completed",
      "subject": {
        "reference": "urn:uuid:42630117-d85b-4c1a-a18c-3f3e6c68842d"
      },
      "context": {
        "reference": "urn:uuid:3c5fd144-f9eb-4a8c-a09a-678506b58a2b"
      },
      "authored": "2021-04-06T11:33:34+00:00",
      "item": [ {
        "linkId": "Tx221176",
        "text": "PregnancyUnder20Weeks",
        "answer": [ {
          "valueString": "*"
        } ]
      } ]
    }
  }, {
    "fullUrl": "urn:uuid:7bbdbe06-ebcf-4856-a963-186fb51d4579",
    "resource": {
      "resourceType": "Questionnaire",
      "id": "7bbdbe06-ebcf-4856-a963-186fb51d4579",
      "identifier": [ {
        "value": "59132"
      } ],
      "version": "2021-04-06T11:33:34.963Z",
      "status": "active",
      "experimental": false,
      "date": "2021-04-06T11:33:34+00:00",
      "publisher": "User ID: 'MCDONALDD' User name: 'Denzle McDonald' User skill set: 'T3'",
      "lastReviewDate": "2021-04-06",
      "subjectType": [ "Patient" ],
      "item": [ {
        "linkId": "59132",
        "prefix": "7700",
        "text": "PregnancyUnder20Weeks",
        "type": "choice",
        "required": true,
        "repeats": false,
        "option": [ {
          "valueString": "==\"present\", Selected: false"
        }, {
          "valueString": "*, Selected: true"
        } ]
      } ]
    }
  }, {
    "fullUrl": "urn:uuid:e71c5307-780f-46bf-a4d2-c3de2fceef14",
    "resource": {
      "resourceType": "QuestionnaireResponse",
      "id": "e71c5307-780f-46bf-a4d2-c3de2fceef14",
      "identifier": {
        "value": "59132"
      },
      "questionnaire": {
        "reference": "urn:uuid:874adebb-15f1-4eee-9822-0068c1cb5c81"
      },
      "status": "completed",
      "subject": {
        "reference": "urn:uuid:42630117-d85b-4c1a-a18c-3f3e6c68842d"
      },
      "context": {
        "reference": "urn:uuid:3c5fd144-f9eb-4a8c-a09a-678506b58a2b"
      },
      "authored": "2021-04-06T11:33:34+00:00",
      "item": [ {
        "linkId": "Tx221338",
        "text": ">=11yearsConfirmed",
        "answer": [ {
          "valueString": "*"
        } ]
      } ]
    }
  }, {
    "fullUrl": "urn:uuid:874adebb-15f1-4eee-9822-0068c1cb5c81",
    "resource": {
      "resourceType": "Questionnaire",
      "id": "874adebb-15f1-4eee-9822-0068c1cb5c81",
      "identifier": [ {
        "value": "59132"
      } ],
      "version": "2021-04-06T11:33:34.963Z",
      "status": "active",
      "experimental": false,
      "date": "2021-04-06T11:33:34+00:00",
      "publisher": "User ID: 'MCDONALDD' User name: 'Denzle McDonald' User skill set: 'T3'",
      "lastReviewDate": "2021-04-06",
      "subjectType": [ "Patient" ],
      "item": [ {
        "linkId": "59132",
        "prefix": "8200",
        "text": ">=11yearsConfirmed",
        "type": "choice",
        "required": true,
        "repeats": false,
        "option": [ {
          "valueString": "==\"present\", Selected: false"
        }, {
          "valueString": "*, Selected: true"
        } ]
      } ]
    }
  }, {
    "fullUrl": "urn:uuid:240e0e6a-5cf0-4076-a8a4-58261f4593a6",
    "resource": {
      "resourceType": "QuestionnaireResponse",
      "id": "240e0e6a-5cf0-4076-a8a4-58261f4593a6",
      "identifier": {
        "value": "59132"
      },
      "questionnaire": {
        "reference": "urn:uuid:57753805-a259-4749-af77-bec4325d0f22"
      },
      "status": "completed",
      "subject": {
        "reference": "urn:uuid:42630117-d85b-4c1a-a18c-3f3e6c68842d"
      },
      "context": {
        "reference": "urn:uuid:3c5fd144-f9eb-4a8c-a09a-678506b58a2b"
      },
      "authored": "2021-04-06T11:33:34+00:00",
      "item": [ {
        "linkId": "Tx1033",
        "text": "Have you passed a bowel motion that looks like either of the following?",
        "answer": [ {
          "valueString": "no"
        } ]
      } ]
    }
  }, {
    "fullUrl": "urn:uuid:57753805-a259-4749-af77-bec4325d0f22",
    "resource": {
      "resourceType": "Questionnaire",
      "id": "57753805-a259-4749-af77-bec4325d0f22",
      "identifier": [ {
        "value": "59132"
      } ],
      "version": "2021-04-06T11:33:34.963Z",
      "status": "active",
      "experimental": false,
      "date": "2021-04-06T11:33:34+00:00",
      "publisher": "User ID: 'MCDONALDD' User name: 'Denzle McDonald' User skill set: 'T3'",
      "lastReviewDate": "2021-04-06",
      "subjectType": [ "Patient" ],
      "item": [ {
        "linkId": "59132",
        "prefix": "65200",
        "text": "Have you passed a bowel motion that looks like either of the following?",
        "type": "choice",
        "required": true,
        "repeats": false,
        "option": [ {
          "valueString": "black and tarry, Selected: false"
        }, {
          "valueString": "red or maroon, Selected: false"
        }, {
          "valueString": "not sure, Selected: false"
        }, {
          "valueString": "no, Selected: true"
        } ]
      } ]
    }
  }, {
    "fullUrl": "urn:uuid:26d8ff84-a925-4057-81bb-4e4d1a3ef41e",
    "resource": {
      "resourceType": "QuestionnaireResponse",
      "id": "26d8ff84-a925-4057-81bb-4e4d1a3ef41e",
      "identifier": {
        "value": "59132"
      },
      "questionnaire": {
        "reference": "urn:uuid:a835f76c-bd27-44da-b554-74bdbc41d8da"
      },
      "status": "completed",
      "subject": {
        "reference": "urn:uuid:42630117-d85b-4c1a-a18c-3f3e6c68842d"
      },
      "context": {
        "reference": "urn:uuid:3c5fd144-f9eb-4a8c-a09a-678506b58a2b"
      },
      "authored": "2021-04-06T11:33:34+00:00",
      "item": [ {
        "linkId": "Tx223274",
        "text": "VHFSymptom",
        "answer": [ {
          "valueString": "*"
        } ]
      } ]
    }
  }, {
    "fullUrl": "urn:uuid:a835f76c-bd27-44da-b554-74bdbc41d8da",
    "resource": {
      "resourceType": "Questionnaire",
      "id": "a835f76c-bd27-44da-b554-74bdbc41d8da",
      "identifier": [ {
        "value": "59132"
      } ],
      "version": "2021-04-06T11:33:34.963Z",
      "status": "active",
      "experimental": false,
      "date": "2021-04-06T11:33:34+00:00",
      "publisher": "User ID: 'MCDONALDD' User name: 'Denzle McDonald' User skill set: 'T3'",
      "lastReviewDate": "2021-04-06",
      "subjectType": [ "Patient" ],
      "item": [ {
        "linkId": "59132",
        "prefix": "34000",
        "text": "VHFSymptom",
        "type": "choice",
        "required": true,
        "repeats": false,
        "option": [ {
          "valueString": "==\"present\", Selected: false"
        }, {
          "valueString": "*, Selected: true"
        } ]
      } ]
    }
  }, {
    "fullUrl": "urn:uuid:2b84807d-f887-4209-a362-80968928e856",
    "resource": {
      "resourceType": "QuestionnaireResponse",
      "id": "2b84807d-f887-4209-a362-80968928e856",
      "identifier": {
        "value": "59132"
      },
      "questionnaire": {
        "reference": "urn:uuid:195b06e8-1de9-4c01-87d7-edc492afd6f3"
      },
      "status": "completed",
      "subject": {
        "reference": "urn:uuid:42630117-d85b-4c1a-a18c-3f3e6c68842d"
      },
      "context": {
        "reference": "urn:uuid:3c5fd144-f9eb-4a8c-a09a-678506b58a2b"
      },
      "authored": "2021-04-06T11:33:34+00:00",
      "item": [ {
        "linkId": "Tx224075",
        "text": "SeverelyIllandConfused",
        "answer": [ {
          "valueString": "*"
        } ]
      } ]
    }
  }, {
    "fullUrl": "urn:uuid:195b06e8-1de9-4c01-87d7-edc492afd6f3",
    "resource": {
      "resourceType": "Questionnaire",
      "id": "195b06e8-1de9-4c01-87d7-edc492afd6f3",
      "identifier": [ {
        "value": "59132"
      } ],
      "version": "2021-04-06T11:33:34.963Z",
      "status": "active",
      "experimental": false,
      "date": "2021-04-06T11:33:34+00:00",
      "publisher": "User ID: 'MCDONALDD' User name: 'Denzle McDonald' User skill set: 'T3'",
      "lastReviewDate": "2021-04-06",
      "subjectType": [ "Patient" ],
      "item": [ {
        "linkId": "59132",
        "prefix": "47300",
        "text": "SeverelyIllandConfused",
        "type": "choice",
        "required": true,
        "repeats": false,
        "option": [ {
          "valueString": "==\"present\", Selected: false"
        }, {
          "valueString": "*, Selected: true"
        } ]
      } ]
    }
  }, {
    "fullUrl": "urn:uuid:5d721ff8-659d-4a62-8398-2f799c44f308",
    "resource": {
      "resourceType": "QuestionnaireResponse",
      "id": "5d721ff8-659d-4a62-8398-2f799c44f308",
      "identifier": {
        "value": "59132"
      },
      "questionnaire": {
        "reference": "urn:uuid:1b61abfc-0b2b-4047-a403-a89107bb87f9"
      },
      "status": "completed",
      "subject": {
        "reference": "urn:uuid:42630117-d85b-4c1a-a18c-3f3e6c68842d"
      },
      "context": {
        "reference": "urn:uuid:3c5fd144-f9eb-4a8c-a09a-678506b58a2b"
      },
      "authored": "2021-04-06T11:33:34+00:00",
      "item": [ {
        "linkId": "Tx221119",
        "text": "SeverelyIll",
        "answer": [ {
          "valueString": "*"
        } ]
      } ]
    }
  }, {
    "fullUrl": "urn:uuid:1b61abfc-0b2b-4047-a403-a89107bb87f9",
    "resource": {
      "resourceType": "Questionnaire",
      "id": "1b61abfc-0b2b-4047-a403-a89107bb87f9",
      "identifier": [ {
        "value": "59132"
      } ],
      "version": "2021-04-06T11:33:34.963Z",
      "status": "active",
      "experimental": false,
      "date": "2021-04-06T11:33:34+00:00",
      "publisher": "User ID: 'MCDONALDD' User name: 'Denzle McDonald' User skill set: 'T3'",
      "lastReviewDate": "2021-04-06",
      "subjectType": [ "Patient" ],
      "item": [ {
        "linkId": "59132",
        "prefix": "55200",
        "text": "SeverelyIll",
        "type": "choice",
        "required": true,
        "repeats": false,
        "option": [ {
          "valueString": "==\"present\", Selected: false"
        }, {
          "valueString": "*, Selected: true"
        } ]
      } ]
    }
  }, {
    "fullUrl": "urn:uuid:964827c6-80db-4cc1-9abc-34ddd0eab713",
    "resource": {
      "resourceType": "QuestionnaireResponse",
      "id": "964827c6-80db-4cc1-9abc-34ddd0eab713",
      "identifier": {
        "value": "59132"
      },
      "questionnaire": {
        "reference": "urn:uuid:1796ed1b-75ca-47db-8d46-e860c53ad094"
      },
      "status": "completed",
      "subject": {
        "reference": "urn:uuid:42630117-d85b-4c1a-a18c-3f3e6c68842d"
      },
      "context": {
        "reference": "urn:uuid:3c5fd144-f9eb-4a8c-a09a-678506b58a2b"
      },
      "authored": "2021-04-06T11:33:34+00:00",
      "item": [ {
        "linkId": "Tx223485",
        "text": "ConfusionDeclared",
        "answer": [ {
          "valueString": "*"
        } ]
      } ]
    }
  }, {
    "fullUrl": "urn:uuid:1796ed1b-75ca-47db-8d46-e860c53ad094",
    "resource": {
      "resourceType": "Questionnaire",
      "id": "1796ed1b-75ca-47db-8d46-e860c53ad094",
      "identifier": [ {
        "value": "59132"
      } ],
      "version": "2021-04-06T11:33:34.963Z",
      "status": "active",
      "experimental": false,
      "date": "2021-04-06T11:33:34+00:00",
      "publisher": "User ID: 'MCDONALDD' User name: 'Denzle McDonald' User skill set: 'T3'",
      "lastReviewDate": "2021-04-06",
      "subjectType": [ "Patient" ],
      "item": [ {
        "linkId": "59132",
        "prefix": "55600",
        "text": "ConfusionDeclared",
        "type": "choice",
        "required": true,
        "repeats": false,
        "option": [ {
          "valueString": "==\"present\", Selected: false"
        }, {
          "valueString": "*, Selected: true"
        } ]
      } ]
    }
  }, {
    "fullUrl": "urn:uuid:c67e95a2-c128-4dc3-98a1-20e0d365c838",
    "resource": {
      "resourceType": "QuestionnaireResponse",
      "id": "c67e95a2-c128-4dc3-98a1-20e0d365c838",
      "identifier": {
        "value": "59132"
      },
      "questionnaire": {
        "reference": "urn:uuid:e054c90c-9edd-45e6-b252-4eebeb420210"
      },
      "status": "completed",
      "subject": {
        "reference": "urn:uuid:42630117-d85b-4c1a-a18c-3f3e6c68842d"
      },
      "context": {
        "reference": "urn:uuid:3c5fd144-f9eb-4a8c-a09a-678506b58a2b"
      },
      "authored": "2021-04-06T11:33:34+00:00",
      "item": [ {
        "linkId": "Tx1213",
        "text": "Have you suddenly become confused OR more confused than usual?",
        "answer": [ {
          "valueString": "no"
        } ]
      } ]
    }
  }, {
    "fullUrl": "urn:uuid:e054c90c-9edd-45e6-b252-4eebeb420210",
    "resource": {
      "resourceType": "Questionnaire",
      "id": "e054c90c-9edd-45e6-b252-4eebeb420210",
      "identifier": [ {
        "value": "59132"
      } ],
      "version": "2021-04-06T11:33:34.963Z",
      "status": "active",
      "experimental": false,
      "date": "2021-04-06T11:33:34+00:00",
      "publisher": "User ID: 'MCDONALDD' User name: 'Denzle McDonald' User skill set: 'T3'",
      "lastReviewDate": "2021-04-06",
      "subjectType": [ "Patient" ],
      "item": [ {
        "linkId": "59132",
        "prefix": "55500",
        "text": "Have you suddenly become confused OR more confused than usual?",
        "type": "choice",
        "required": true,
        "repeats": false,
        "option": [ {
          "valueString": "yes, Selected: false"
        }, {
          "valueString": "not sure, Selected: false"
        }, {
          "valueString": "no, Selected: true"
        } ]
      } ]
    }
  }, {
    "fullUrl": "urn:uuid:2890699e-42db-4006-affe-6e765d86d621",
    "resource": {
      "resourceType": "QuestionnaireResponse",
      "id": "2890699e-42db-4006-affe-6e765d86d621",
      "identifier": {
        "value": "59132"
      },
      "questionnaire": {
        "reference": "urn:uuid:3989918f-33bc-4b61-ae0f-43fdf0e43590"
      },
      "status": "completed",
      "subject": {
        "reference": "urn:uuid:42630117-d85b-4c1a-a18c-3f3e6c68842d"
      },
      "context": {
        "reference": "urn:uuid:3c5fd144-f9eb-4a8c-a09a-678506b58a2b"
      },
      "authored": "2021-04-06T11:33:34+00:00",
      "item": [ {
        "linkId": "Tx220164",
        "text": "Are you breathing faster or harder when doing nothing at all?",
        "answer": [ {
          "valueString": "no"
        } ]
      } ]
    }
  }, {
    "fullUrl": "urn:uuid:3989918f-33bc-4b61-ae0f-43fdf0e43590",
    "resource": {
      "resourceType": "Questionnaire",
      "id": "3989918f-33bc-4b61-ae0f-43fdf0e43590",
      "identifier": [ {
        "value": "59132"
      } ],
      "version": "2021-04-06T11:33:34.963Z",
      "status": "active",
      "experimental": false,
      "date": "2021-04-06T11:33:34+00:00",
      "publisher": "User ID: 'MCDONALDD' User name: 'Denzle McDonald' User skill set: 'T3'",
      "lastReviewDate": "2021-04-06",
      "subjectType": [ "Patient" ],
      "item": [ {
        "linkId": "59132",
        "prefix": "55400",
        "text": "Are you breathing faster or harder when doing nothing at all?",
        "type": "choice",
        "required": true,
        "repeats": false,
        "option": [ {
          "valueString": "yes, Selected: false"
        }, {
          "valueString": "not sure, Selected: false"
        }, {
          "valueString": "no, Selected: true"
        } ]
      } ]
    }
  }, {
    "fullUrl": "urn:uuid:a3ba4c2f-d52b-4bd3-9364-0e36c9c86c26",
    "resource": {
      "resourceType": "QuestionnaireResponse",
      "id": "a3ba4c2f-d52b-4bd3-9364-0e36c9c86c26",
      "identifier": {
        "value": "59132"
      },
      "questionnaire": {
        "reference": "urn:uuid:67cd47c0-8ef8-4b91-8422-d23dc7e42709"
      },
      "status": "completed",
      "subject": {
        "reference": "urn:uuid:42630117-d85b-4c1a-a18c-3f3e6c68842d"
      },
      "context": {
        "reference": "urn:uuid:3c5fd144-f9eb-4a8c-a09a-678506b58a2b"
      },
      "authored": "2021-04-06T11:33:34+00:00",
      "item": [ {
        "linkId": "Tx224697",
        "text": "ShoulderTipPainAsked",
        "answer": [ {
          "valueString": "*"
        } ]
      } ]
    }
  }, {
    "fullUrl": "urn:uuid:67cd47c0-8ef8-4b91-8422-d23dc7e42709",
    "resource": {
      "resourceType": "Questionnaire",
      "id": "67cd47c0-8ef8-4b91-8422-d23dc7e42709",
      "identifier": [ {
        "value": "59132"
      } ],
      "version": "2021-04-06T11:33:34.963Z",
      "status": "active",
      "experimental": false,
      "date": "2021-04-06T11:33:34+00:00",
      "publisher": "User ID: 'MCDONALDD' User name: 'Denzle McDonald' User skill set: 'T3'",
      "lastReviewDate": "2021-04-06",
      "subjectType": [ "Patient" ],
      "item": [ {
        "linkId": "59132",
        "prefix": "59300",
        "text": "ShoulderTipPainAsked",
        "type": "choice",
        "required": true,
        "repeats": false,
        "option": [ {
          "valueString": "==\"present\", Selected: false"
        }, {
          "valueString": "*, Selected: true"
        } ]
      } ]
    }
  }, {
    "fullUrl": "urn:uuid:6fbe1a99-5e0c-49c1-b1b8-2ce7c10e45c6",
    "resource": {
      "resourceType": "QuestionnaireResponse",
      "id": "6fbe1a99-5e0c-49c1-b1b8-2ce7c10e45c6",
      "identifier": {
        "value": "59132"
      },
      "questionnaire": {
        "reference": "urn:uuid:31621a31-d305-4270-b86e-7f8bf0c8adc6"
      },
      "status": "completed",
      "subject": {
        "reference": "urn:uuid:42630117-d85b-4c1a-a18c-3f3e6c68842d"
      },
      "context": {
        "reference": "urn:uuid:3c5fd144-f9eb-4a8c-a09a-678506b58a2b"
      },
      "authored": "2021-04-06T11:33:34+00:00",
      "item": [ {
        "linkId": "Tx1513",
        "text": "Have you got either of the following problems?",
        "answer": [ {
          "valueString": "no"
        } ]
      } ]
    }
  }, {
    "fullUrl": "urn:uuid:31621a31-d305-4270-b86e-7f8bf0c8adc6",
    "resource": {
      "resourceType": "Questionnaire",
      "id": "31621a31-d305-4270-b86e-7f8bf0c8adc6",
      "identifier": [ {
        "value": "59132"
      } ],
      "version": "2021-04-06T11:33:34.963Z",
      "status": "active",
      "experimental": false,
      "date": "2021-04-06T11:33:34+00:00",
      "publisher": "User ID: 'MCDONALDD' User name: 'Denzle McDonald' User skill set: 'T3'",
      "lastReviewDate": "2021-04-06",
      "subjectType": [ "Patient" ],
      "item": [ {
        "linkId": "59132",
        "prefix": "11000",
        "text": "Have you got either of the following problems?",
        "type": "choice",
        "required": true,
        "repeats": false,
        "option": [ {
          "valueString": "new pain in the TIP of a shoulder as well, Selected: false"
        }, {
          "valueString": "pain in the lower right side of the abdomen, Selected: false"
        }, {
          "valueString": "not sure, Selected: false"
        }, {
          "valueString": "no, Selected: true"
        } ]
      } ]
    }
  }, {
    "fullUrl": "urn:uuid:ce9c5735-bb54-47d6-b118-a72ba6bf4a26",
    "resource": {
      "resourceType": "QuestionnaireResponse",
      "id": "ce9c5735-bb54-47d6-b118-a72ba6bf4a26",
      "identifier": {
        "value": "59132"
      },
      "questionnaire": {
        "reference": "urn:uuid:679c72f3-339f-43f8-b7f0-9037c45fe24a"
      },
      "status": "completed",
      "subject": {
        "reference": "urn:uuid:42630117-d85b-4c1a-a18c-3f3e6c68842d"
      },
      "context": {
        "reference": "urn:uuid:3c5fd144-f9eb-4a8c-a09a-678506b58a2b"
      },
      "authored": "2021-04-06T11:33:34+00:00",
      "item": [ {
        "linkId": "Tx3481",
        "text": "Has the pain been there ALL THE TIME for MORE THAN 4 HOURS?",
        "answer": [ {
          "valueString": "no (LESS THAN 4 hours)"
        } ]
      } ]
    }
  }, {
    "fullUrl": "urn:uuid:679c72f3-339f-43f8-b7f0-9037c45fe24a",
    "resource": {
      "resourceType": "Questionnaire",
      "id": "679c72f3-339f-43f8-b7f0-9037c45fe24a",
      "identifier": [ {
        "value": "59132"
      } ],
      "version": "2021-04-06T11:33:34.963Z",
      "status": "active",
      "experimental": false,
      "date": "2021-04-06T11:33:34+00:00",
      "publisher": "User ID: 'MCDONALDD' User name: 'Denzle McDonald' User skill set: 'T3'",
      "lastReviewDate": "2021-04-06",
      "subjectType": [ "Patient" ],
      "item": [ {
        "linkId": "59132",
        "prefix": "13000",
        "text": "Has the pain been there ALL THE TIME for MORE THAN 4 HOURS?",
        "type": "choice",
        "required": true,
        "repeats": false,
        "option": [ {
          "valueString": "yes (4 hours or MORE), Selected: false"
        }, {
          "valueString": "not sure, Selected: false"
        }, {
          "valueString": "no (LESS THAN 4 hours), Selected: true"
        } ]
      } ]
    }
  }, {
    "fullUrl": "urn:uuid:6f81fc91-acc0-43e5-b9ea-2a2d3a91b310",
    "resource": {
      "resourceType": "QuestionnaireResponse",
      "id": "6f81fc91-acc0-43e5-b9ea-2a2d3a91b310",
      "identifier": {
        "value": "59132"
      },
      "questionnaire": {
        "reference": "urn:uuid:d9226e91-43e6-47b2-8979-db0a740e5eb8"
      },
      "status": "completed",
      "subject": {
        "reference": "urn:uuid:42630117-d85b-4c1a-a18c-3f3e6c68842d"
      },
      "context": {
        "reference": "urn:uuid:3c5fd144-f9eb-4a8c-a09a-678506b58a2b"
      },
      "authored": "2021-04-06T11:33:34+00:00",
      "item": [ {
        "linkId": "Tx1178",
        "text": "Have you been diagnosed with diabetes?",
        "answer": [ {
          "valueString": "no"
        } ]
      } ]
    }
  }, {
    "fullUrl": "urn:uuid:d9226e91-43e6-47b2-8979-db0a740e5eb8",
    "resource": {
      "resourceType": "Questionnaire",
      "id": "d9226e91-43e6-47b2-8979-db0a740e5eb8",
      "identifier": [ {
        "value": "59132"
      } ],
      "version": "2021-04-06T11:33:34.963Z",
      "status": "active",
      "experimental": false,
      "date": "2021-04-06T11:33:34+00:00",
      "publisher": "User ID: 'MCDONALDD' User name: 'Denzle McDonald' User skill set: 'T3'",
      "lastReviewDate": "2021-04-06",
      "subjectType": [ "Patient" ],
      "item": [ {
        "linkId": "59132",
        "prefix": "13700",
        "text": "Have you been diagnosed with diabetes?",
        "type": "choice",
        "required": true,
        "repeats": false,
        "option": [ {
          "valueString": "yes, Selected: false"
        }, {
          "valueString": "not sure, Selected: false"
        }, {
          "valueString": "no, Selected: true"
        } ]
      } ]
    }
  }, {
    "fullUrl": "urn:uuid:8fc2cdc0-2d4c-4dc8-8007-1dd8c03f3cdb",
    "resource": {
      "resourceType": "QuestionnaireResponse",
      "id": "8fc2cdc0-2d4c-4dc8-8007-1dd8c03f3cdb",
      "identifier": {
        "value": "59132"
      },
      "questionnaire": {
        "reference": "urn:uuid:3df7646d-9982-4c78-b8ca-f8339d92e761"
      },
      "status": "completed",
      "subject": {
        "reference": "urn:uuid:42630117-d85b-4c1a-a18c-3f3e6c68842d"
      },
      "context": {
        "reference": "urn:uuid:3c5fd144-f9eb-4a8c-a09a-678506b58a2b"
      },
      "authored": "2021-04-06T11:33:34+00:00",
      "item": [ {
        "linkId": "Tx220906",
        "text": "Have you got pain in the back or side between the ribs and hips?",
        "answer": [ {
          "valueString": "yes"
        } ]
      } ]
    }
  }, {
    "fullUrl": "urn:uuid:3df7646d-9982-4c78-b8ca-f8339d92e761",
    "resource": {
      "resourceType": "Questionnaire",
      "id": "3df7646d-9982-4c78-b8ca-f8339d92e761",
      "identifier": [ {
        "value": "59132"
      } ],
      "version": "2021-04-06T11:33:34.963Z",
      "status": "active",
      "experimental": false,
      "date": "2021-04-06T11:33:34+00:00",
      "publisher": "User ID: 'MCDONALDD' User name: 'Denzle McDonald' User skill set: 'T3'",
      "lastReviewDate": "2021-04-06",
      "subjectType": [ "Patient" ],
      "item": [ {
        "linkId": "59132",
        "prefix": "14400",
        "text": "Have you got pain in the back or side between the ribs and hips?",
        "type": "choice",
        "required": true,
        "repeats": false,
        "option": [ {
          "valueString": "yes, Selected: true"
        }, {
          "valueString": "not sure, Selected: false"
        }, {
          "valueString": "no, Selected: false"
        } ]
      } ]
    }
  }, {
    "fullUrl": "urn:uuid:f2f12ce9-4419-4df3-85bd-62c76ed92390",
    "resource": {
      "resourceType": "QuestionnaireResponse",
      "id": "f2f12ce9-4419-4df3-85bd-62c76ed92390",
      "identifier": {
        "value": "59132"
      },
      "questionnaire": {
        "reference": "urn:uuid:3abfbbff-e1f1-46d6-947e-826d8e589f5c"
      },
      "status": "completed",
      "subject": {
        "reference": "urn:uuid:42630117-d85b-4c1a-a18c-3f3e6c68842d"
      },
      "context": {
        "reference": "urn:uuid:3c5fd144-f9eb-4a8c-a09a-678506b58a2b"
      },
      "authored": "2021-04-06T11:33:34+00:00",
      "item": [ {
        "linkId": "Tx1122",
        "text": "Have you felt hot or feverish at any time in the last 12 hours?",
        "answer": [ {
          "valueString": "yes - temperature not taken"
        } ]
      } ]
    }
  }, {
    "fullUrl": "urn:uuid:3abfbbff-e1f1-46d6-947e-826d8e589f5c",
    "resource": {
      "resourceType": "Questionnaire",
      "id": "3abfbbff-e1f1-46d6-947e-826d8e589f5c",
      "identifier": [ {
        "value": "59132"
      } ],
      "version": "2021-04-06T11:33:34.963Z",
      "status": "active",
      "experimental": false,
      "date": "2021-04-06T11:33:34+00:00",
      "publisher": "User ID: 'MCDONALDD' User name: 'Denzle McDonald' User skill set: 'T3'",
      "lastReviewDate": "2021-04-06",
      "subjectType": [ "Patient" ],
      "item": [ {
        "linkId": "59132",
        "prefix": "14700",
        "text": "Have you felt hot or feverish at any time in the last 12 hours?",
        "type": "choice",
        "required": true,
        "repeats": false,
        "option": [ {
          "valueString": "yes - temperature not taken, Selected: true"
        }, {
          "valueString": "yes - temperature taken (specify), Selected: false"
        }, {
          "valueString": "not sure, Selected: false"
        }, {
          "valueString": "no, Selected: false"
        } ]
      } ]
    }
  }, {
    "fullUrl": "urn:uuid:7aeb092c-1ce9-4d8f-994b-47c51e77ce42",
    "resource": {
      "resourceType": "QuestionnaireResponse",
      "id": "7aeb092c-1ce9-4d8f-994b-47c51e77ce42",
      "identifier": {
        "value": "59132"
      },
      "questionnaire": {
        "reference": "urn:uuid:bf09f0f6-774a-4a60-88f0-fc1be93c7f15"
      },
      "status": "completed",
      "subject": {
        "reference": "urn:uuid:42630117-d85b-4c1a-a18c-3f3e6c68842d"
      },
      "context": {
        "reference": "urn:uuid:3c5fd144-f9eb-4a8c-a09a-678506b58a2b"
      },
      "authored": "2021-04-06T11:33:34+00:00",
      "item": [ {
        "linkId": "Tx1320",
        "text": "Have you got a new red rash all over, like sunburn?",
        "answer": [ {
          "valueString": "no"
        } ]
      } ]
    }
  }, {
    "fullUrl": "urn:uuid:bf09f0f6-774a-4a60-88f0-fc1be93c7f15",
    "resource": {
      "resourceType": "Questionnaire",
      "id": "bf09f0f6-774a-4a60-88f0-fc1be93c7f15",
      "identifier": [ {
        "value": "59132"
      } ],
      "version": "2021-04-06T11:33:34.963Z",
      "status": "active",
      "experimental": false,
      "date": "2021-04-06T11:33:34+00:00",
      "publisher": "User ID: 'MCDONALDD' User name: 'Denzle McDonald' User skill set: 'T3'",
      "lastReviewDate": "2021-04-06",
      "subjectType": [ "Patient" ],
      "item": [ {
        "linkId": "59132",
        "prefix": "14800",
        "text": "Have you got a new red rash all over, like sunburn?",
        "type": "choice",
        "required": true,
        "repeats": false,
        "option": [ {
          "valueString": "yes, Selected: false"
        }, {
          "valueString": "not sure, Selected: false"
        }, {
          "valueString": "no, Selected: true"
        } ]
      } ]
    }
  }, {
    "fullUrl": "urn:uuid:e4a27faa-0078-4a26-bcf3-7e7b9a404cff",
    "resource": {
      "resourceType": "QuestionnaireResponse",
      "id": "e4a27faa-0078-4a26-bcf3-7e7b9a404cff",
      "identifier": {
        "value": "59132"
      },
      "questionnaire": {
        "reference": "urn:uuid:65a49b55-0c9c-4349-91e8-7f8d3269831f"
      },
      "status": "completed",
      "subject": {
        "reference": "urn:uuid:42630117-d85b-4c1a-a18c-3f3e6c68842d"
      },
      "context": {
        "reference": "urn:uuid:3c5fd144-f9eb-4a8c-a09a-678506b58a2b"
      },
      "authored": "2021-04-06T11:33:34+00:00",
      "item": [ {
        "linkId": "Tx221449",
        "text": "STRING:SDPCFullPrimaryCareassessmentandprescribingcapability",
        "answer": [ {
          "valueString": "\"PC full Primary Care assessment and prescribing capability\""
        } ]
      } ]
    }
  }, {
    "fullUrl": "urn:uuid:65a49b55-0c9c-4349-91e8-7f8d3269831f",
    "resource": {
      "resourceType": "Questionnaire",
      "id": "65a49b55-0c9c-4349-91e8-7f8d3269831f",
      "identifier": [ {
        "value": "59132"
      } ],
      "version": "2021-04-06T11:33:34.963Z",
      "status": "active",
      "experimental": false,
      "date": "2021-04-06T11:33:34+00:00",
      "publisher": "User ID: 'MCDONALDD' User name: 'Denzle McDonald' User skill set: 'T3'",
      "lastReviewDate": "2021-04-06",
      "subjectType": [ "Patient" ],
      "item": [ {
        "linkId": "59132",
        "prefix": "14900",
        "text": "STRING:SDPCFullPrimaryCareassessmentandprescribingcapability",
        "type": "choice",
        "required": true,
        "repeats": false,
        "option": [ {
          "valueString": "\"PC full Primary Care assessment and prescribing capability\", Selected: true"
        } ]
      } ]
    }
  }, {
    "fullUrl": "urn:uuid:d26a5fa6-5b42-4718-8f2d-5383b746d294",
    "resource": {
      "resourceType": "QuestionnaireResponse",
      "id": "d26a5fa6-5b42-4718-8f2d-5383b746d294",
      "identifier": {
        "value": "59132"
      },
      "questionnaire": {
        "reference": "urn:uuid:b0eb9354-40a0-4826-942e-f69a0720ab8e"
      },
      "status": "completed",
      "subject": {
        "reference": "urn:uuid:42630117-d85b-4c1a-a18c-3f3e6c68842d"
      },
      "context": {
        "reference": "urn:uuid:3c5fd144-f9eb-4a8c-a09a-678506b58a2b"
      },
      "authored": "2021-04-06T11:33:34+00:00"
    }
  }, {
    "fullUrl": "urn:uuid:b0eb9354-40a0-4826-942e-f69a0720ab8e",
    "resource": {
      "resourceType": "Questionnaire",
      "id": "b0eb9354-40a0-4826-942e-f69a0720ab8e",
      "identifier": [ {
        "value": "59132"
      } ],
      "version": "2021-04-06T11:33:34.963Z",
      "status": "active",
      "experimental": false,
      "date": "2021-04-06T11:33:34+00:00",
      "publisher": "User ID: 'MCDONALDD' User name: 'Denzle McDonald' User skill set: 'T3'",
      "lastReviewDate": "2021-04-06",
      "subjectType": [ "Patient" ]
    }
  }, {
    "fullUrl": "urn:uuid:157bb080-40db-4b9c-803d-41bbf1bd4fe2",
    "resource": {
      "resourceType": "QuestionnaireResponse",
      "id": "157bb080-40db-4b9c-803d-41bbf1bd4fe2",
      "identifier": {
        "value": "59132"
      },
      "questionnaire": {
        "reference": "urn:uuid:a49edad3-86df-4b9c-bcb4-b9314d8aa93a"
      },
      "status": "completed",
      "subject": {
        "reference": "urn:uuid:42630117-d85b-4c1a-a18c-3f3e6c68842d"
      },
      "context": {
        "reference": "urn:uuid:3c5fd144-f9eb-4a8c-a09a-678506b58a2b"
      },
      "authored": "2021-04-06T11:33:34+00:00"
    }
  }, {
    "fullUrl": "urn:uuid:a49edad3-86df-4b9c-bcb4-b9314d8aa93a",
    "resource": {
      "resourceType": "Questionnaire",
      "id": "a49edad3-86df-4b9c-bcb4-b9314d8aa93a",
      "identifier": [ {
        "value": "59132"
      } ],
      "version": "2021-04-06T11:33:34.963Z",
      "status": "active",
      "experimental": false,
      "date": "2021-04-06T11:33:34+00:00",
      "publisher": "User ID: 'MCDONALDD' User name: 'Denzle McDonald' User skill set: 'T3'",
      "lastReviewDate": "2021-04-06",
      "subjectType": [ "Patient" ]
    }
  }, {
    "fullUrl": "urn:uuid:6a1d653e-a910-4599-8f99-6b570bdf44ff",
    "resource": {
      "resourceType": "QuestionnaireResponse",
      "id": "6a1d653e-a910-4599-8f99-6b570bdf44ff",
      "identifier": {
        "value": "59132"
      },
      "questionnaire": {
        "reference": "urn:uuid:c708f23e-2b41-4d3c-ace8-264e46117c67"
      },
      "status": "completed",
      "subject": {
        "reference": "urn:uuid:42630117-d85b-4c1a-a18c-3f3e6c68842d"
      },
      "context": {
        "reference": "urn:uuid:3c5fd144-f9eb-4a8c-a09a-678506b58a2b"
      },
      "authored": "2021-04-06T11:33:34+00:00"
    }
  }, {
    "fullUrl": "urn:uuid:c708f23e-2b41-4d3c-ace8-264e46117c67",
    "resource": {
      "resourceType": "Questionnaire",
      "id": "c708f23e-2b41-4d3c-ace8-264e46117c67",
      "identifier": [ {
        "value": "59132"
      } ],
      "version": "2021-04-06T11:33:34.963Z",
      "status": "active",
      "experimental": false,
      "date": "2021-04-06T11:33:34+00:00",
      "publisher": "User ID: 'MCDONALDD' User name: 'Denzle McDonald' User skill set: 'T3'",
      "lastReviewDate": "2021-04-06",
      "subjectType": [ "Patient" ]
    }
  }, {
    "fullUrl": "urn:uuid:1896be97-340f-4cc1-aff5-6a8335755ee0",
    "resource": {
      "resourceType": "QuestionnaireResponse",
      "id": "1896be97-340f-4cc1-aff5-6a8335755ee0",
      "identifier": {
        "value": "59132"
      },
      "questionnaire": {
        "reference": "urn:uuid:2469f508-cd57-499c-aa84-be69565005ba"
      },
      "status": "completed",
      "subject": {
        "reference": "urn:uuid:42630117-d85b-4c1a-a18c-3f3e6c68842d"
      },
      "context": {
        "reference": "urn:uuid:3c5fd144-f9eb-4a8c-a09a-678506b58a2b"
      },
      "authored": "2021-04-06T11:33:34+00:00"
    }
  }, {
    "fullUrl": "urn:uuid:2469f508-cd57-499c-aa84-be69565005ba",
    "resource": {
      "resourceType": "Questionnaire",
      "id": "2469f508-cd57-499c-aa84-be69565005ba",
      "identifier": [ {
        "value": "59132"
      } ],
      "version": "2021-04-06T11:33:34.963Z",
      "status": "active",
      "experimental": false,
      "date": "2021-04-06T11:33:34+00:00",
      "publisher": "User ID: 'MCDONALDD' User name: 'Denzle McDonald' User skill set: 'T3'",
      "lastReviewDate": "2021-04-06",
      "subjectType": [ "Patient" ]
    }
  }, {
    "fullUrl": "urn:uuid:7487dea8-3878-404a-a7e8-69de4356a9d3",
    "resource": {
      "resourceType": "QuestionnaireResponse",
      "id": "7487dea8-3878-404a-a7e8-69de4356a9d3",
      "identifier": {
        "value": "59132"
      },
      "questionnaire": {
        "reference": "urn:uuid:d2f0308b-7b28-4381-a107-95ca3e177736"
      },
      "status": "completed",
      "subject": {
        "reference": "urn:uuid:42630117-d85b-4c1a-a18c-3f3e6c68842d"
      },
      "context": {
        "reference": "urn:uuid:3c5fd144-f9eb-4a8c-a09a-678506b58a2b"
      },
      "authored": "2021-04-06T11:33:34+00:00"
    }
  }, {
    "fullUrl": "urn:uuid:d2f0308b-7b28-4381-a107-95ca3e177736",
    "resource": {
      "resourceType": "Questionnaire",
      "id": "d2f0308b-7b28-4381-a107-95ca3e177736",
      "identifier": [ {
        "value": "59132"
      } ],
      "version": "2021-04-06T11:33:34.963Z",
      "status": "active",
      "experimental": false,
      "date": "2021-04-06T11:33:34+00:00",
      "publisher": "User ID: 'MCDONALDD' User name: 'Denzle McDonald' User skill set: 'T3'",
      "lastReviewDate": "2021-04-06",
      "subjectType": [ "Patient" ]
    }
  }, {
    "fullUrl": "urn:uuid:5c5e7528-5d38-4925-8b74-0027697f4584",
    "resource": {
      "resourceType": "Observation",
      "id": "5c5e7528-5d38-4925-8b74-0027697f4584",
      "status": "final",
      "code": {
        "coding": [ {
          "system": "http://snomed.info/sct",
          "code": "33962009",
          "display": "Presenting complaint"
        } ]
      },
      "subject": {
        "reference": "urn:uuid:42630117-d85b-4c1a-a18c-3f3e6c68842d"
      },
      "context": {
        "reference": "urn:uuid:3c5fd144-f9eb-4a8c-a09a-678506b58a2b"
      },
      "valueString": "Pharmacy ITK Testing"
    }
  }, {
    "fullUrl": "urn:uuid:d0686ff8-eef8-4474-8007-a18a091caf4e",
    "resource": {
      "resourceType": "PractitionerRole",
      "id": "d0686ff8-eef8-4474-8007-a18a091caf4e",
      "practitioner": {
        "reference": "urn:uuid:c62727b3-9a66-43c8-a885-463121467bd5"
      },
      "organization": {
        "reference": "urn:uuid:16ea56b2-e932-4039-9476-10569a1e3bfc"
      },
      "code": [ {
        "coding": [ {
          "system": "2.16.840.1.113883.2.1.3.2.4.17.339",
          "code": "DOCTOR",
          "display": "Doctor"
        } ]
      } ]
    }
  }, {
    "fullUrl": "urn:uuid:16ea56b2-e932-4039-9476-10569a1e3bfc",
    "resource": {
      "resourceType": "Organization",
      "id": "16ea56b2-e932-4039-9476-10569a1e3bfc",
      "identifier": [ {
        "value": "RYE"
      } ],
      "name": "1.SCAS Administrator (SCAS111)"
    }
  }, {
    "fullUrl": "urn:uuid:0d13d8ec-20fe-450a-a956-4bb38ac7cff5",
    "resource": {
      "resourceType": "PractitionerRole",
      "id": "0d13d8ec-20fe-450a-a956-4bb38ac7cff5",
      "practitioner": {
        "reference": "urn:uuid:16cdcc7e-0d32-410e-a4b2-780157e1ba39"
      },
      "organization": {
        "reference": "urn:uuid:91bd60ee-eab3-45f1-9ffd-cc5c1f14e6f8"
      },
      "code": [ {
        "coding": [ {
          "system": "2.16.840.1.113883.2.1.3.2.4.17.196",
          "code": "R0010",
          "display": "Medical Director"
        } ]
      } ]
    }
  }, {
    "fullUrl": "urn:uuid:91bd60ee-eab3-45f1-9ffd-cc5c1f14e6f8",
    "resource": {
      "resourceType": "Organization",
      "id": "91bd60ee-eab3-45f1-9ffd-cc5c1f14e6f8",
      "identifier": [ {
        "value": "RYE"
      } ],
      "name": "SCAS111"
    }
  }, {
    "fullUrl": "urn:uuid:9a3be666-ded4-47f6-900c-ab8c8f3ad8cd",
    "resource": {
      "resourceType": "RelatedPerson",
      "id": "9a3be666-ded4-47f6-900c-ab8c8f3ad8cd",
      "patient": {
        "reference": "urn:uuid:42630117-d85b-4c1a-a18c-3f3e6c68842d"
      },
      "relationship": {
        "coding": [ {
          "system": "http://hl7.org/fhir/v2/0131",
          "code": "C",
          "display": "Emergency Contact"
        } ]
      },
      "telecom": [ {
        "system": "phone",
        "value": "tel:07948625625"
      } ]
    }
  }, {
    "fullUrl": "urn:uuid:8388a46d-6c1e-4635-889e-c200cd483e54",
    "resource": {
      "resourceType": "Device",
      "id": "8388a46d-6c1e-4635-889e-c200cd483e54",
      "model": "111 Adaptor",
      "version": "0.9.0"
    }
  }, {
    "fullUrl": "urn:uuid:2fcc652b-bac0-4f71-b47c-4b1e129b3ea0",
    "resource": {
      "resourceType": "List",
      "id": "2fcc652b-bac0-4f71-b47c-4b1e129b3ea0",
      "status": "current",
      "mode": "working",
      "title": "111 Report List",
      "code": {
        "coding": [ {
          "system": "http://snomed.info/sct",
          "code": "225390008",
          "display": "Triage"
        } ]
      },
      "subject": {
        "reference": "urn:uuid:42630117-d85b-4c1a-a18c-3f3e6c68842d"
      },
      "encounter": {
        "reference": "urn:uuid:3c5fd144-f9eb-4a8c-a09a-678506b58a2b"
      },
      "date": "2021-08-25T00:26:19+00:00",
      "source": {
        "reference": "urn:uuid:8388a46d-6c1e-4635-889e-c200cd483e54"
      },
      "orderedBy": {
        "coding": [ {
          "system": "http://hl7.org/fhir/list-order",
          "code": "event-date",
          "display": "Sorted by Event Date"
        } ]
      },
      "entry": [ {
        "item": {
          "reference": "urn:uuid:9a3be666-ded4-47f6-900c-ab8c8f3ad8cd"
        }
      }, {
        "item": {
          "reference": "urn:uuid:9d8c2495-159d-4057-9473-abb15a078a82"
        }
      }, {
        "item": {
          "reference": "urn:uuid:16ea56b2-e932-4039-9476-10569a1e3bfc"
        }
      }, {
        "item": {
          "reference": "urn:uuid:1fc56f70-d506-49a1-a161-e3381bf6e7d3"
        }
      }, {
        "item": {
          "reference": "urn:uuid:16cdcc7e-0d32-410e-a4b2-780157e1ba39"
        }
      }, {
        "item": {
          "reference": "urn:uuid:7c433f3e-42ec-4a5b-90b2-61b5130af12d"
        }
      }, {
        "item": {
          "reference": "urn:uuid:5c5e7528-5d38-4925-8b74-0027697f4584"
        }
      }, {
        "item": {
          "reference": "urn:uuid:17c51e65-d64b-4185-a610-691843c45897"
        }
      }, {
        "item": {
          "reference": "urn:uuid:e2748513-1821-4077-b2d5-2f7facfb7248"
        }
      }, {
        "item": {
          "reference": "urn:uuid:c62727b3-9a66-43c8-a885-463121467bd5"
        }
      }, {
        "item": {
          "reference": "urn:uuid:91bd60ee-eab3-45f1-9ffd-cc5c1f14e6f8"
        }
      }, {
        "item": {
          "reference": "urn:uuid:63bf97ed-0d4b-4e44-a8ed-7a15cab511c3"
        }
      }, {
        "item": {
          "reference": "urn:uuid:7a6a543f-4b1b-4d64-8750-f77f8d82219e"
        }
      }, {
        "item": {
          "reference": "urn:uuid:359cbff7-35cc-4c39-8669-a8f12f19b104"
        }
      }, {
        "item": {
          "reference": "urn:uuid:80f76659-b550-4595-b742-ea98f15be9d6"
        }
      }, {
        "item": {
          "reference": "urn:uuid:769c8fcd-3bb2-4ba6-9674-0388afc0f733"
        }
      }, {
        "item": {
          "reference": "urn:uuid:c708f23e-2b41-4d3c-ace8-264e46117c67"
        }
      }, {
        "item": {
          "reference": "urn:uuid:59a1bd69-5f48-42d2-8a79-29c09c4fc706"
        }
      }, {
        "item": {
          "reference": "urn:uuid:e65d0669-2738-46ac-941c-a07ceebd9945"
        }
      }, {
        "item": {
          "reference": "urn:uuid:6a544b09-1606-4577-9111-8b3cfb5195bb"
        }
      }, {
        "item": {
          "reference": "urn:uuid:3a66e2bf-22b7-45e7-bb9e-98a103a3d4f2"
        }
      }, {
        "item": {
          "reference": "urn:uuid:240e0e6a-5cf0-4076-a8a4-58261f4593a6"
        }
      }, {
        "item": {
          "reference": "urn:uuid:87538657-87af-4cda-9644-bae39ba7f3b2"
        }
      }, {
        "item": {
          "reference": "urn:uuid:5d721ff8-659d-4a62-8398-2f799c44f308"
        }
      }, {
        "item": {
          "reference": "urn:uuid:89561d6a-ab09-4eff-8c1f-1526330be9f3"
        }
      }, {
        "item": {
          "reference": "urn:uuid:8dc3875a-4501-4ba5-a486-2f7ba3976df4"
        }
      }, {
        "item": {
          "reference": "urn:uuid:164306cf-cb8e-4015-8713-38e51ec6ca95"
        }
      }, {
        "item": {
          "reference": "urn:uuid:dbd352e1-daee-4815-abc5-8cf882c69bd0"
        }
      }, {
        "item": {
          "reference": "urn:uuid:e4a27faa-0078-4a26-bcf3-7e7b9a404cff"
        }
      }, {
        "item": {
          "reference": "urn:uuid:31621a31-d305-4270-b86e-7f8bf0c8adc6"
        }
      }, {
        "item": {
          "reference": "urn:uuid:38143f71-3171-4410-99e7-fa4ed34f1e54"
        }
      }, {
        "item": {
          "reference": "urn:uuid:4187b498-b6e9-4391-8710-14de3341e50d"
        }
      }, {
        "item": {
          "reference": "urn:uuid:67cd47c0-8ef8-4b91-8422-d23dc7e42709"
        }
      }, {
        "item": {
          "reference": "urn:uuid:229503d0-dd2b-4358-99ae-5844c5d6a306"
        }
      }, {
        "item": {
          "reference": "urn:uuid:26d8ff84-a925-4057-81bb-4e4d1a3ef41e"
        }
      }, {
        "item": {
          "reference": "urn:uuid:6a1d653e-a910-4599-8f99-6b570bdf44ff"
        }
      }, {
        "item": {
          "reference": "urn:uuid:d9226e91-43e6-47b2-8979-db0a740e5eb8"
        }
      }, {
        "item": {
          "reference": "urn:uuid:92536b7e-7151-45f3-b1ab-5d490bc8c7ad"
        }
      }, {
        "item": {
          "reference": "urn:uuid:39a08a32-d788-4893-9e1c-916466acdc1c"
        }
      }, {
        "item": {
          "reference": "urn:uuid:144a2bd6-2399-43fa-bc6c-46102aec4930"
        }
      }, {
        "item": {
          "reference": "urn:uuid:a184a839-3f92-4db0-93ad-56dc08b46d91"
        }
      }, {
        "item": {
          "reference": "urn:uuid:9aa2a883-13d7-4906-ba28-dacda0f6b9d4"
        }
      }, {
        "item": {
          "reference": "urn:uuid:03e6a2ef-d389-4d7f-add7-53cf934969e8"
        }
      }, {
        "item": {
          "reference": "urn:uuid:c2470e7a-b556-4fa4-9aa2-b6d36c79b454"
        }
      }, {
        "item": {
          "reference": "urn:uuid:57753805-a259-4749-af77-bec4325d0f22"
        }
      }, {
        "item": {
          "reference": "urn:uuid:6fbe1a99-5e0c-49c1-b1b8-2ce7c10e45c6"
        }
      }, {
        "item": {
          "reference": "urn:uuid:a0c1b729-000b-44bc-a7c8-da6b1db1c10a"
        }
      }, {
        "item": {
          "reference": "urn:uuid:a835f76c-bd27-44da-b554-74bdbc41d8da"
        }
      }, {
        "item": {
          "reference": "urn:uuid:1796ed1b-75ca-47db-8d46-e860c53ad094"
        }
      }, {
        "item": {
          "reference": "urn:uuid:fd425cba-80cc-4cb3-af7f-01811e21d749"
        }
      }, {
        "item": {
          "reference": "urn:uuid:9dea13e0-a83f-407f-8d33-d72aa85bb5bf"
        }
      }, {
        "item": {
          "reference": "urn:uuid:a243381a-4ffa-42d5-9b55-421850d4996c"
        }
      }, {
        "item": {
          "reference": "urn:uuid:a3ba4c2f-d52b-4bd3-9364-0e36c9c86c26"
        }
      }, {
        "item": {
          "reference": "urn:uuid:4dac3299-62a7-4063-b415-e198ea398e05"
        }
      }, {
        "item": {
          "reference": "urn:uuid:874adebb-15f1-4eee-9822-0068c1cb5c81"
        }
      }, {
        "item": {
          "reference": "urn:uuid:0d3026da-d795-4c8b-a4ad-07d30d40b375"
        }
      }, {
        "item": {
          "reference": "urn:uuid:2d92827c-fc06-4ab0-82b5-e6dc43298957"
        }
      }, {
        "item": {
          "reference": "urn:uuid:ce9c5735-bb54-47d6-b118-a72ba6bf4a26"
        }
      }, {
        "item": {
          "reference": "urn:uuid:a49edad3-86df-4b9c-bcb4-b9314d8aa93a"
        }
      }, {
        "item": {
          "reference": "urn:uuid:1f2ca789-e787-4c9a-8d7a-e5a1e040ad1d"
        }
      }, {
        "item": {
          "reference": "urn:uuid:67aa3b96-dd4d-40ce-ba67-431d048a99a8"
        }
      }, {
        "item": {
          "reference": "urn:uuid:e6d5919a-0664-4b75-b754-93a66e60fd7a"
        }
      }, {
        "item": {
          "reference": "urn:uuid:e054c90c-9edd-45e6-b252-4eebeb420210"
        }
      }, {
        "item": {
          "reference": "urn:uuid:3c4aa80f-3b84-4d83-b0be-3db02820f110"
        }
      }, {
        "item": {
          "reference": "urn:uuid:3df7646d-9982-4c78-b8ca-f8339d92e761"
        }
      }, {
        "item": {
          "reference": "urn:uuid:2abe90e6-92c8-416a-9ded-5abc3c08a714"
        }
      }, {
        "item": {
          "reference": "urn:uuid:2469f508-cd57-499c-aa84-be69565005ba"
        }
      }, {
        "item": {
          "reference": "urn:uuid:e1e990ab-5d3e-4a92-a246-929b04af14b2"
        }
      }, {
        "item": {
          "reference": "urn:uuid:1b61abfc-0b2b-4047-a403-a89107bb87f9"
        }
      }, {
        "item": {
          "reference": "urn:uuid:1fcc7509-066b-43e4-82ce-9ee92b714c2a"
        }
      }, {
        "item": {
          "reference": "urn:uuid:421d8f89-b511-4070-af76-031a4ec90d8e"
        }
      }, {
        "item": {
          "reference": "urn:uuid:a0ac5f2a-721b-4587-bd0a-d757a61bbd76"
        }
      }, {
        "item": {
          "reference": "urn:uuid:6318bc46-b2ea-4051-b2a4-a09c632f165f"
        }
      }, {
        "item": {
          "reference": "urn:uuid:7487dea8-3878-404a-a7e8-69de4356a9d3"
        }
      }, {
        "item": {
          "reference": "urn:uuid:1896be97-340f-4cc1-aff5-6a8335755ee0"
        }
      }, {
        "item": {
          "reference": "urn:uuid:3989918f-33bc-4b61-ae0f-43fdf0e43590"
        }
      }, {
        "item": {
          "reference": "urn:uuid:69ed69e7-f5c3-4bfc-be5c-0cf10b79c436"
        }
      }, {
        "item": {
          "reference": "urn:uuid:6ed7c8c8-e058-4c6b-a1a3-9bc0836ce83f"
        }
      }, {
        "item": {
          "reference": "urn:uuid:2a4c3af6-ea3f-4dbe-92ea-afdfea240b05"
        }
      }, {
        "item": {
          "reference": "urn:uuid:05756572-5a5b-41c1-b858-425b0dc8aaf8"
        }
      }, {
        "item": {
          "reference": "urn:uuid:8fc2cdc0-2d4c-4dc8-8007-1dd8c03f3cdb"
        }
      }, {
        "item": {
          "reference": "urn:uuid:73f034aa-69b0-4233-8f76-14301646b45e"
        }
      }, {
        "item": {
          "reference": "urn:uuid:2379b88a-7d94-42d2-b529-efa1856bb4a5"
        }
      }, {
        "item": {
          "reference": "urn:uuid:9dcb3fb1-9bf3-4762-8f6e-1c0d1cc4d631"
        }
      }, {
        "item": {
          "reference": "urn:uuid:da7b1c8a-0b81-4593-a002-3cc1b0a787a8"
        }
      }, {
        "item": {
          "reference": "urn:uuid:09981f5c-2968-44da-be7d-036b2f36d2c6"
        }
      }, {
        "item": {
          "reference": "urn:uuid:7aeb092c-1ce9-4d8f-994b-47c51e77ce42"
        }
      }, {
        "item": {
          "reference": "urn:uuid:b45cce22-abdf-404b-94a7-136124b570aa"
        }
      }, {
        "item": {
          "reference": "urn:uuid:d79a757a-8db7-4490-8501-93097ba0ba1b"
        }
      }, {
        "item": {
          "reference": "urn:uuid:2c0a62c9-797d-42f4-a6e7-51a99f2ee8ee"
        }
      }, {
        "item": {
          "reference": "urn:uuid:29bcb375-7c7b-4c34-910e-c12389d1096b"
        }
      }, {
        "item": {
          "reference": "urn:uuid:302eb1b2-3690-4007-a7df-08c29a198994"
        }
      }, {
        "item": {
          "reference": "urn:uuid:519f338f-2c5f-46b6-9d5f-7ab45c93e4cd"
        }
      }, {
        "item": {
          "reference": "urn:uuid:4533a105-dade-459d-873a-2640b56e64e8"
        }
      }, {
        "item": {
          "reference": "urn:uuid:7bbdbe06-ebcf-4856-a963-186fb51d4579"
        }
      }, {
        "item": {
          "reference": "urn:uuid:dbc1cd6a-ea72-4839-a18b-3a2f6a30cc27"
        }
      }, {
        "item": {
          "reference": "urn:uuid:c826ce5e-2676-4b86-b2e8-41e9142ec787"
        }
      }, {
        "item": {
          "reference": "urn:uuid:61102a8e-1927-45dd-943c-83a2170010bf"
        }
      }, {
        "item": {
          "reference": "urn:uuid:fcc2e4ff-53a3-4583-aa22-0c7138598ac2"
        }
      }, {
        "item": {
          "reference": "urn:uuid:2a9ae99d-7479-4127-b495-ac9897afa78e"
        }
      }, {
        "item": {
          "reference": "urn:uuid:583bea80-657c-4651-a94e-8c035de4b2f3"
        }
      }, {
        "item": {
          "reference": "urn:uuid:6a5e8ec3-2a1f-4ff7-b260-432a97bdfe26"
        }
      }, {
        "item": {
          "reference": "urn:uuid:0127c68f-a778-4d9d-88d5-fbd7d6cc6037"
        }
      }, {
        "item": {
          "reference": "urn:uuid:8c524a2c-5fb4-4f80-a445-c0e7dc6640f3"
        }
      }, {
        "item": {
          "reference": "urn:uuid:d75b3ed7-ad79-4806-9c77-09b3602cdd28"
        }
      }, {
        "item": {
          "reference": "urn:uuid:d2f0308b-7b28-4381-a107-95ca3e177736"
        }
      }, {
        "item": {
          "reference": "urn:uuid:531ea51b-2056-42c8-953e-fa644378e8f1"
        }
      }, {
        "item": {
          "reference": "urn:uuid:fd113411-ae7b-45aa-931b-745d0da45965"
        }
      }, {
        "item": {
          "reference": "urn:uuid:de5b4cd9-0bd0-448a-aad8-ee1ffeb670c5"
        }
      }, {
        "item": {
          "reference": "urn:uuid:cb5fdbd7-4381-4fa2-a993-246820ec7b94"
        }
      }, {
        "item": {
          "reference": "urn:uuid:bf09f0f6-774a-4a60-88f0-fc1be93c7f15"
        }
      }, {
        "item": {
          "reference": "urn:uuid:964827c6-80db-4cc1-9abc-34ddd0eab713"
        }
      }, {
        "item": {
          "reference": "urn:uuid:ebf47ec3-e638-499a-8057-517044c3a2b3"
        }
      }, {
        "item": {
          "reference": "urn:uuid:2af64a52-f6d6-42ca-afae-bc086b0256fa"
        }
      }, {
        "item": {
          "reference": "urn:uuid:d26a5fa6-5b42-4718-8f2d-5383b746d294"
        }
      }, {
        "item": {
          "reference": "urn:uuid:3e071ef1-a9bb-48b3-81f1-9a603c354d9b"
        }
      }, {
        "item": {
          "reference": "urn:uuid:95d4ec09-e516-452c-be23-d882c7180127"
        }
      }, {
        "item": {
          "reference": "urn:uuid:1c528af5-bca2-4dab-8361-0a55575a6c8a"
        }
      }, {
        "item": {
          "reference": "urn:uuid:5f47cad7-620e-4dbd-9736-41b556211a91"
        }
      }, {
        "item": {
          "reference": "urn:uuid:9d7fa278-ec2c-4b9c-bf4e-f3ae64522429"
        }
      }, {
        "item": {
          "reference": "urn:uuid:65a49b55-0c9c-4349-91e8-7f8d3269831f"
        }
      }, {
        "item": {
          "reference": "urn:uuid:6f81fc91-acc0-43e5-b9ea-2a2d3a91b310"
        }
      }, {
        "item": {
          "reference": "urn:uuid:eaa18860-f07b-4390-9ab7-55d9f9dca1bc"
        }
      }, {
        "item": {
          "reference": "urn:uuid:9fae2fc6-c39c-4e84-b9d3-e163950edc81"
        }
      }, {
        "item": {
          "reference": "urn:uuid:3abfbbff-e1f1-46d6-947e-826d8e589f5c"
        }
      }, {
        "item": {
          "reference": "urn:uuid:afd44e72-03ef-4068-9ad7-bf39df9bbadb"
        }
      }, {
        "item": {
          "reference": "urn:uuid:347e20e9-7d6b-4b3e-94d1-b2931158060b"
        }
      }, {
        "item": {
          "reference": "urn:uuid:1459df44-3127-4efd-911e-9c4ae9fe2c16"
        }
      }, {
        "item": {
          "reference": "urn:uuid:2ed935df-b513-4699-9d35-73e1ef0936f5"
        }
      }, {
        "item": {
          "reference": "urn:uuid:e71c5307-780f-46bf-a4d2-c3de2fceef14"
        }
      }, {
        "item": {
          "reference": "urn:uuid:1f8ef931-1a26-4278-b08b-e6a456d7903c"
        }
      }, {
        "item": {
          "reference": "urn:uuid:6c126cbb-d7af-4e76-9214-38ae4909741e"
        }
      }, {
        "item": {
          "reference": "urn:uuid:359be46d-260c-4366-a06c-9901a77af07c"
        }
      }, {
        "item": {
          "reference": "urn:uuid:2890699e-42db-4006-affe-6e765d86d621"
        }
      }, {
        "item": {
          "reference": "urn:uuid:7568c050-a422-4214-8290-11239fab9404"
        }
      }, {
        "item": {
          "reference": "urn:uuid:f4a35a12-7c43-44f6-8a92-11da97bb8a21"
        }
      }, {
        "item": {
          "reference": "urn:uuid:b0eb9354-40a0-4826-942e-f69a0720ab8e"
        }
      }, {
        "item": {
          "reference": "urn:uuid:4bef3e16-e6a5-4996-b95a-393a8fcc263f"
        }
      }, {
        "item": {
          "reference": "urn:uuid:fa9f92dd-a200-4112-9aab-3c6f61a47d7a"
        }
      }, {
        "item": {
          "reference": "urn:uuid:c9abcb21-fb80-499c-b2c8-2a17fc8cef68"
        }
      }, {
        "item": {
          "reference": "urn:uuid:679c72f3-339f-43f8-b7f0-9037c45fe24a"
        }
      }, {
        "item": {
          "reference": "urn:uuid:ea895aa3-20d9-4663-8d73-4967e76f6737"
        }
      }, {
        "item": {
          "reference": "urn:uuid:195b06e8-1de9-4c01-87d7-edc492afd6f3"
        }
      }, {
        "item": {
          "reference": "urn:uuid:f2f12ce9-4419-4df3-85bd-62c76ed92390"
        }
      }, {
        "item": {
          "reference": "urn:uuid:452202e9-9616-4031-9aec-eec1f6f5a2c0"
        }
      }, {
        "item": {
          "reference": "urn:uuid:82082d6b-1bad-4384-8cbf-6f96d84fb0bd"
        }
      }, {
        "item": {
          "reference": "urn:uuid:5642d2b8-798e-4dbd-bac8-e28c8911088d"
        }
      }, {
        "item": {
          "reference": "urn:uuid:8956d6d9-674e-4145-8a8d-017d078f8d79"
        }
      }, {
        "item": {
          "reference": "urn:uuid:834f4c54-c945-4f1e-9b8b-1c0921bfe0d8"
        }
      }, {
        "item": {
          "reference": "urn:uuid:6d6c5f38-23de-4410-9bef-4e6943321307"
        }
      }, {
        "item": {
          "reference": "urn:uuid:c67e95a2-c128-4dc3-98a1-20e0d365c838"
        }
      }, {
        "item": {
          "reference": "urn:uuid:71848f8a-ecb6-4386-9c09-dde24cd943bf"
        }
      }, {
        "item": {
          "reference": "urn:uuid:636802a3-2eca-4a7a-9640-557f94b951d6"
        }
      }, {
        "item": {
          "reference": "urn:uuid:50824196-b48e-4a92-8d8b-9e9ca7093dc1"
        }
      }, {
        "item": {
          "reference": "urn:uuid:2b84807d-f887-4209-a362-80968928e856"
        }
      }, {
        "item": {
          "reference": "urn:uuid:3bfa3a9f-ccaf-44df-9a4b-1ee721650936"
        }
      }, {
        "item": {
          "reference": "urn:uuid:157bb080-40db-4b9c-803d-41bbf1bd4fe2"
        }
      }, {
        "item": {
          "reference": "urn:uuid:bd2009f3-7804-4a34-8898-399dc046efa4"
        }
      } ]
    }
  } ]
}
