{
  "resourceType": "Bundle",
  "identifier": {
    "type": {
      "text": "ClinicalDocument VersionNumber"
    },
    "value": "1"
  },
  "type": "message",
  "entry": [ {
    "fullUrl": "urn:uuid:2F182787-CA39-46F8-9B1C-8E77F3050067",
    "resource": {
      "resourceType": "MessageHeader",
      "id": "2F182787-CA39-46F8-9B1C-8E77F3050067",
      "event": {
        "system": "https://fhir.nhs.uk/STU3/CodeSystem/EventType-1",
        "code": "referral-1",
        "display": "Referral"
      },
      "destination": [ {
        "endpoint": "urn:nhs-uk:addressing:ods:FDH68RPX:DOSServiceID:2000038407"
      } ],
      "timestamp": "2021-04-06T11:29:27.000+00:00",
      "source": {
        "name": "NHS 111 Adaptor",
        "endpoint": "http://localhost:8080/report"
      },
      "reason": {
        "coding": [ {
          "system": "urn:nhs-itk:ns:201005:interaction",
          "code": "urn:nhs-itk:interaction:primaryOutofHourRecipientNHS111CDADocument-v2-0"
        } ]
      }
    }
  }, {
    "fullUrl": "urn:uuid:6c961885-4c09-47d8-be16-2e7ee04aff3b",
    "resource": {
      "resourceType": "Encounter",
      "id": "6c961885-4c09-47d8-be16-2e7ee04aff3b",
      "identifier": [ {
        "system": "2.16.840.1.113883.2.1.3.2.4.18.34",
        "value": "CAC4BF79-AF64-47E2-8162-53438279E2F9"
      }, {
        "system": "2.16.840.1.113883.2.1.3.2.4.18.35",
        "value": "59263"
      }, {
        "system": "2.16.840.1.113883.2.1.3.2.4.18.49",
        "value": "CAC4BF79-AF64-47E2-8162-53438279E2F9"
      } ],
      "status": "finished",
      "type": [ {
        "text": "111 Encounter Referral"
      } ],
      "subject": {
        "reference": "urn:uuid:b9cefb71-4090-4b6f-8d8b-07d90793ecbd"
      },
      "participant": [ {
        "type": [ {
          "coding": [ {
            "system": "http://hl7.org/fhir/ValueSet/encounter-participant-type",
            "code": "PPRF",
            "display": "Author"
          } ]
        } ],
        "individual": {
          "reference": "urn:uuid:5581ce15-91f6-4f7f-8c85-52c8cd8b28f5"
        }
      }, {
        "type": [ {
          "text": "Informant"
        } ],
        "individual": {
          "reference": "urn:uuid:6b58822e-0112-46c8-99cf-7ef815600c1a"
        }
      }, {
        "type": [ {
          "coding": [ {
            "system": "http://hl7.org/fhir/ValueSet/encounter-participant-type",
            "code": "ATND",
            "display": "Responsible Party"
          } ]
        } ],
        "individual": {
          "reference": "urn:uuid:5d13c2c5-b707-4542-82c5-06d36a359466"
        }
      } ],
      "period": {
        "start": "2021-04-06T11:29:27+00:00"
      },
      "location": [ {
        "location": {
          "reference": "urn:uuid:0b397acd-7b5b-42db-8d9b-b4c76bfd1d55"
        },
        "status": "completed"
      } ],
      "serviceProvider": {
        "reference": "urn:uuid:9f2e6321-4be7-40ec-8d8f-e667921aeef3"
      }
    }
  }, {
    "fullUrl": "urn:uuid:9f2e6321-4be7-40ec-8d8f-e667921aeef3",
    "resource": {
      "resourceType": "Organization",
      "id": "9f2e6321-4be7-40ec-8d8f-e667921aeef3",
      "active": true,
      "type": [ {
        "text": "CST"
      } ],
      "name": "SCAS111"
    }
  }, {
    "fullUrl": "urn:uuid:5581ce15-91f6-4f7f-8c85-52c8cd8b28f5",
    "resource": {
      "resourceType": "Practitioner",
      "id": "5581ce15-91f6-4f7f-8c85-52c8cd8b28f5",
      "active": true,
      "name": [ {
        "use": "official",
        "family": "Hadfield",
        "given": [ "Ryan" ]
      } ]
    }
  }, {
    "fullUrl": "urn:uuid:6b58822e-0112-46c8-99cf-7ef815600c1a",
    "resource": {
      "resourceType": "RelatedPerson",
      "id": "6b58822e-0112-46c8-99cf-7ef815600c1a",
      "active": true,
      "patient": {
        "reference": "urn:uuid:b9cefb71-4090-4b6f-8d8b-07d90793ecbd"
      },
      "relationship": {
        "coding": [ {
          "system": "2.16.840.1.113883.2.1.3.2.4.16.45",
          "code": "99",
          "display": "Not specified"
        } ]
      },
      "name": [ {
        "text": "Test Caller (Carer - Home)"
      } ],
      "telecom": [ {
        "system": "phone",
        "value": "tel:07777888888",
        "use": "home"
      } ],
      "gender": "unknown"
    }
  }, {
    "fullUrl": "urn:uuid:5d13c2c5-b707-4542-82c5-06d36a359466",
    "resource": {
      "resourceType": "Practitioner",
      "id": "5d13c2c5-b707-4542-82c5-06d36a359466",
      "active": true,
      "name": [ {
        "use": "official",
        "family": "Black",
        "given": [ "John" ]
      } ]
    }
  }, {
    "fullUrl": "urn:uuid:0b397acd-7b5b-42db-8d9b-b4c76bfd1d55",
    "resource": {
      "resourceType": "Location",
      "id": "0b397acd-7b5b-42db-8d9b-b4c76bfd1d55",
      "name": "Incident Location",
      "address": {
        "type": "physical",
        "line": [ "12A", "Otter Close", "Bishopstoke", "Eastleigh", "Hampshire" ],
        "postalCode": "SO50 8NF"
      }
    }
  }, {
    "fullUrl": "urn:uuid:b9cefb71-4090-4b6f-8d8b-07d90793ecbd",
    "resource": {
      "resourceType": "Patient",
      "id": "b9cefb71-4090-4b6f-8d8b-07d90793ecbd",
      "identifier": [ {
        "extension": [ {
          "url": "https://fhir.hl7.org.uk/STU3/StructureDefinition/Extension-CareConnect-NHSNumberVerificationStatus-1",
          "valueCodeableConcept": {
            "coding": [ {
              "system": "https://fhir.hl7.org.uk/STU3/StructureDefinition/Extension-CareConnect-NHSNumberVerificationStatus-1",
              "code": "02"
            } ]
          }
        } ],
        "system": "https://fhir.nhs.uk/Id/nhs-number",
        "value": "0000000000"
      } ],
      "active": true,
      "name": [ {
        "use": "official",
        "family": "Testone",
        "given": [ "Test" ]
      } ],
      "telecom": [ {
        "system": "phone",
        "value": "tel:000000000000",
        "use": "home"
      }, {
        "system": "phone",
        "value": "tel:01111111111",
        "use": "mobile"
      }, {
        "system": "phone",
        "value": "tel:000000000000"
      } ],
      "gender": "female",
      "birthDate": "1980-01-01",
      "address": [ {
        "use": "home",
        "line": [ "Southern House", "Sparrowgrove", "Otterbourne", "Winchester", "Hampshire" ],
        "postalCode": "SO21 2RU"
      }, {
        "type": "physical",
        "line": [ "12A", "Otter Close", "Bishopstoke", "Eastleigh", "Hampshire" ],
        "postalCode": "SO50 8NF"
      } ]
    }
  }, {
    "fullUrl": "urn:uuid:2aab482a-5cfe-42b7-9fbc-0f2d8dc898ac",
    "resource": {
      "resourceType": "HealthcareService",
      "id": "2aab482a-5cfe-42b7-9fbc-0f2d8dc898ac",
      "active": true,
      "providedBy": {
        "reference": "urn:uuid:79072075-08a7-4d91-9fa5-6ec65b2cd99d"
      },
      "location": [ {
        "reference": "urn:uuid:66ef6499-82e3-4e1a-b866-abd2524517e1"
      } ],
      "name": "Lloyds Pharmacy, Stokewood Close, Fair Oak, Eastleigh"
    }
  }, {
    "fullUrl": "urn:uuid:66ef6499-82e3-4e1a-b866-abd2524517e1",
    "resource": {
      "resourceType": "Location",
      "id": "66ef6499-82e3-4e1a-b866-abd2524517e1",
      "managingOrganization": {
        "reference": "urn:uuid:79072075-08a7-4d91-9fa5-6ec65b2cd99d"
      }
    }
  }, {
    "fullUrl": "urn:uuid:79072075-08a7-4d91-9fa5-6ec65b2cd99d",
    "resource": {
      "resourceType": "Organization",
      "id": "79072075-08a7-4d91-9fa5-6ec65b2cd99d",
      "identifier": [ {
        "value": "FDH68RPX"
      } ],
      "type": [ {
        "coding": [ {
          "code": "PRCP",
          "display": "Lloyds Pharmacy, Stokewood Close, Fair Oak, Eastleigh"
        } ]
      } ],
      "name": "Lloyds Pharmacy, Stokewood Close, Fair Oak, Eastleigh"
    }
  }, {
    "fullUrl": "urn:uuid:cb89d13b-3524-4158-8ff8-44acc5c3e6bd",
    "resource": {
      "resourceType": "ReferralRequest",
      "id": "cb89d13b-3524-4158-8ff8-44acc5c3e6bd",
      "status": "active",
      "intent": "plan",
      "priority": "routine",
      "subject": {
        "reference": "urn:uuid:b9cefb71-4090-4b6f-8d8b-07d90793ecbd"
      },
      "context": {
        "reference": "urn:uuid:6c961885-4c09-47d8-be16-2e7ee04aff3b"
      },
      "occurrencePeriod": {
        "start": "2021-08-25T03:45:50+00:00",
        "end": "2021-08-25T04:45:50+00:00"
      },
      "authoredOn": "2021-04-06T11:29:25+00:00",
      "requester": {
        "agent": {
          "reference": "urn:uuid:9f177e26-3db8-4718-bd56-2dfeea0ea64d"
        },
        "onBehalfOf": {
          "reference": "urn:uuid:9f2e6321-4be7-40ec-8d8f-e667921aeef3"
        }
      },
      "recipient": [ {
        "reference": "urn:uuid:2aab482a-5cfe-42b7-9fbc-0f2d8dc898ac"
      } ],
      "reasonReference": [ {
        "reference": "urn:uuid:38a9141d-6d05-4cc2-be9d-6defbc57108f"
      } ],
      "supportingInfo": [ {
        "reference": "urn:uuid:1eac8384-80a5-40a8-84b1-8e650abae2a3"
      } ]
    }
  }, {
    "fullUrl": "urn:uuid:1eac8384-80a5-40a8-84b1-8e650abae2a3",
    "resource": {
      "resourceType": "ProcedureRequest",
      "id": "1eac8384-80a5-40a8-84b1-8e650abae2a3",
      "status": "active",
      "intent": "plan",
      "priority": "routine",
      "doNotPerform": false,
      "code": {
        "coding": [ {
          "system": "2.16.840.1.113883.2.1.3.2.4.17.325",
          "code": "Dx86",
          "display": "Repeat Prescription required within 12 hours"
        } ]
      },
      "subject": {
        "reference": "urn:uuid:b9cefb71-4090-4b6f-8d8b-07d90793ecbd"
      },
      "occurrencePeriod": {
        "start": "2021-08-25T03:45:50+00:00",
        "end": "2021-08-25T04:45:50+00:00"
      },
      "reasonReference": [ {
        "reference": "urn:uuid:38a9141d-6d05-4cc2-be9d-6defbc57108f"
      } ]
    }
  }, {
    "fullUrl": "urn:uuid:ee040139-dfe7-4e1f-a1b1-17c97070b00f",
    "resource": {
      "resourceType": "Composition",
      "id": "ee040139-dfe7-4e1f-a1b1-17c97070b00f",
      "identifier": {
        "use": "usual",
        "value": "B66502CD-A9B4-4F3E-83EB-981F572C2C91"
      },
      "status": "final",
      "type": {
        "coding": [ {
          "system": "http://snomed.info/sct",
          "code": "371531000",
          "display": "Report of clinical encounter (record artifact)"
        } ]
      },
      "subject": {
        "reference": "urn:uuid:b9cefb71-4090-4b6f-8d8b-07d90793ecbd"
      },
      "encounter": {
        "reference": "urn:uuid:6c961885-4c09-47d8-be16-2e7ee04aff3b"
      },
      "date": "2021-08-25T03:45:50+00:00",
      "author": [ {
        "reference": "urn:uuid:5581ce15-91f6-4f7f-8c85-52c8cd8b28f5"
      } ],
      "title": "111 Report",
      "confidentiality": "N",
      "section": [ {
        "section": [ {
          "title": "Patient's Reported Condition",
          "text": {
            "status": "generated",
            "div": "<div xmlns=\"http://www.w3.org/1999/xhtml\">&lt;xml-fragment xmlns:npfitlc=&quot;NPFIT:HL7:Localisation&quot; xmlns:xsi=&quot;http://www.w3.org/2001/XMLSchema-instance&quot;&gt;\n\t\t\t\t\t\t\t\t\t\t\t\t\t&lt;urn:content xmlns:urn=&quot;urn:hl7-org:v3&quot;&gt;test&lt;/urn:content&gt;\n\t\t\t\t\t\t\t\t\t\t\t\t\t&lt;urn:br xmlns:urn=&quot;urn:hl7-org:v3&quot;/&gt;\n\t\t\t\t\t\t\t\t\t\t\t\t&lt;/xml-fragment&gt;</div>"
          }
        }, {
          "title": "Pathways Disposition",
          "text": {
            "status": "generated",
            "div": "<div xmlns=\"http://www.w3.org/1999/xhtml\">&lt;xml-fragment xmlns:xsi=&quot;http://www.w3.org/2001/XMLSchema-instance&quot;&gt;Repeat Prescription required within 12 hours (Dx86)                                         &lt;urn:br xmlns:urn=&quot;urn:hl7-org:v3&quot;/&gt;\n\t\t\t\t\t\t\t\t\t\t\t\t\t&lt;urn:br xmlns:urn=&quot;urn:hl7-org:v3&quot;/&gt;                                         Selected service: Lloyds Pharmacy, Stokewood Close, Fair Oak, Eastle&lt;urn:br xmlns:urn=&quot;urn:hl7-org:v3&quot;/&gt;\n\t\t\t\t\t\t\t\t\t\t\t\t&lt;/xml-fragment&gt;</div>"
          }
        }, {
          "title": "Consultation Summary",
          "text": {
            "status": "generated",
            "div": "<div xmlns=\"http://www.w3.org/1999/xhtml\">&lt;xml-fragment xmlns:xsi=&quot;http://www.w3.org/2001/XMLSchema-instance&quot;&gt;Prescription request&lt;urn:br xmlns:urn=&quot;urn:hl7-org:v3&quot;/&gt;Not enough medication until surgery opens&lt;urn:br xmlns:urn=&quot;urn:hl7-org:v3&quot;/&gt;No medication available&lt;urn:br xmlns:urn=&quot;urn:hl7-org:v3&quot;/&gt;Next dose due within next 12 hours&lt;urn:br xmlns:urn=&quot;urn:hl7-org:v3&quot;/&gt;\n\t\t\t\t\t\t\t\t\t\t\t\t&lt;/xml-fragment&gt;</div>"
          }
        }, {
          "title": "Pathways Assessment",
          "text": {
            "status": "generated",
            "div": "<div xmlns=\"http://www.w3.org/1999/xhtml\">&lt;xml-fragment xmlns:xsi=&quot;http://www.w3.org/2001/XMLSchema-instance&quot;&gt;Reason for call menu - continued to next list.&lt;urn:br xmlns:urn=&quot;urn:hl7-org:v3&quot;/&gt;A prescription request was the main reason for the contact.&lt;urn:br xmlns:urn=&quot;urn:hl7-org:v3&quot;/&gt;The main reason for the contact was not a new or worsening illness.&lt;urn:br xmlns:urn=&quot;urn:hl7-org:v3&quot;/&gt;The individual did not have enough medication to last until the surgery next opened.&lt;urn:br xmlns:urn=&quot;urn:hl7-org:v3&quot;/&gt;The medication was suitable for repeat prescribing without further consultation.&lt;urn:br xmlns:urn=&quot;urn:hl7-org:v3&quot;/&gt;The individual had no medication available.&lt;urn:br xmlns:urn=&quot;urn:hl7-org:v3&quot;/&gt;The next dose was due within 12 hours.&lt;urn:br xmlns:urn=&quot;urn:hl7-org:v3&quot;/&gt;Instructions given were: The individual needs a repeat prescription.&lt;urn:br xmlns:urn=&quot;urn:hl7-org:v3&quot;/&gt;Directory of Services referral: Lloyds Pharmacy, Stokewood Close, Fair Oak, Eastleigh&lt;urn:br xmlns:urn=&quot;urn:hl7-org:v3&quot;/&gt;\n\t\t\t\t\t\t\t\t\t\t\t\t&lt;/xml-fragment&gt;</div>"
          }
        }, {
          "title": "Advice Given",
          "text": {
            "status": "generated",
            "div": "<div xmlns=\"http://www.w3.org/1999/xhtml\">&lt;xml-fragment xmlns:xsi=&quot;http://www.w3.org/2001/XMLSchema-instance&quot;&gt;IF THE RECOMMENDED TIMEFRAME FALLS OUTSIDE OPENING HOURS: I will arrange for a clinician to speak to the individual.&lt;urn:br xmlns:urn=&quot;urn:hl7-org:v3&quot;/&gt;\n\t\t\t\t\t\t\t\t\t\t\t\t\t&lt;urn:br xmlns:urn=&quot;urn:hl7-org:v3&quot;/&gt;\n\t\t\t\t\t\t\t\t\t\t\t\t&lt;/xml-fragment&gt;</div>"
          }
        }, {
          "title": "Information And Advice Given",
          "text": {
            "status": "generated",
            "div": "<div xmlns=\"http://www.w3.org/1999/xhtml\">&lt;xml-fragment xmlns:npfitlc=&quot;NPFIT:HL7:Localisation&quot; xmlns:xsi=&quot;http://www.w3.org/2001/XMLSchema-instance&quot;/&gt;</div>"
          }
        }, {
          "title": "Disposition",
          "text": {
            "status": "generated",
            "div": "<div xmlns=\"http://www.w3.org/1999/xhtml\">&lt;xml-fragment xmlns:npfitlc=&quot;NPFIT:HL7:Localisation&quot; xmlns:xsi=&quot;http://www.w3.org/2001/XMLSchema-instance&quot;&gt;\n\t\t\t\t\t\t\t\t\t\t\t\t\t&lt;urn:content xmlns:urn=&quot;urn:hl7-org:v3&quot;&gt;Repeat Prescription required within 12 hours&lt;urn:br/&gt;\n\t\t\t\t\t\t\t\t\t\t\t\t\t&lt;/urn:content&gt;\n\t\t\t\t\t\t\t\t\t\t\t\t\t&lt;urn:br xmlns:urn=&quot;urn:hl7-org:v3&quot;/&gt;\n\t\t\t\t\t\t\t\t\t\t\t\t\t&lt;urn:br xmlns:urn=&quot;urn:hl7-org:v3&quot;/&gt;\n\t\t\t\t\t\t\t\t\t\t\t\t&lt;/xml-fragment&gt;</div>"
          }
        } ]
      }, {
        "title": "CarePlan",
        "entry": [ {
          "reference": "urn:uuid:f8151ebd-f952-472f-8be8-e3a29b971315"
        } ]
      }, {
        "title": "ReferralRequest",
        "entry": [ {
          "reference": "urn:uuid:cb89d13b-3524-4158-8ff8-44acc5c3e6bd"
        } ]
      }, {
        "title": "QuestionnaireResponse",
        "entry": [ {
          "reference": "urn:uuid:c99dae40-399a-4d1c-9060-7a6ba01fc9bd"
        } ]
      }, {
        "title": "QuestionnaireResponse",
        "entry": [ {
          "reference": "urn:uuid:72a6c039-fe9b-44a9-b830-dd631912eaa3"
        } ]
      }, {
        "title": "QuestionnaireResponse",
        "entry": [ {
          "reference": "urn:uuid:28581685-7dd0-4711-aec4-184d4286f0ff"
        } ]
      }, {
        "title": "QuestionnaireResponse",
        "entry": [ {
          "reference": "urn:uuid:d1b4a3ff-2a5a-4224-bdb1-c3d6bedd869f"
        } ]
      }, {
        "title": "QuestionnaireResponse",
        "entry": [ {
          "reference": "urn:uuid:8f89b1bb-4098-4633-995e-8b9062f03e81"
        } ]
      }, {
        "title": "QuestionnaireResponse",
        "entry": [ {
          "reference": "urn:uuid:4cc639e9-02f3-4a14-8ec4-e2aafa24f9d0"
        } ]
      }, {
        "title": "QuestionnaireResponse",
        "entry": [ {
          "reference": "urn:uuid:916d5a8b-4d57-431b-adf5-d80fbf40240b"
        } ]
      }, {
        "title": "QuestionnaireResponse",
        "entry": [ {
          "reference": "urn:uuid:519db5be-58f5-4863-9b75-8736e14c0e54"
        } ]
      }, {
        "title": "QuestionnaireResponse",
        "entry": [ {
          "reference": "urn:uuid:c0d55c2c-c6c6-4ab9-946d-96d768eb5d15"
        } ]
      }, {
        "title": "QuestionnaireResponse",
        "entry": [ {
          "reference": "urn:uuid:eb28bf95-d750-4171-8c88-8d5ec6dacd69"
        } ]
      }, {
        "title": "QuestionnaireResponse",
        "entry": [ {
          "reference": "urn:uuid:a5728133-e663-4fce-9350-5b7afb51b81d"
        } ]
      }, {
        "title": "QuestionnaireResponse",
        "entry": [ {
          "reference": "urn:uuid:a2138608-c5e3-43e4-82f1-1b20edb1ec03"
        } ]
      }, {
        "title": "QuestionnaireResponse",
        "entry": [ {
          "reference": "urn:uuid:8cc0c4cc-d05c-4c5a-9480-373c1801bac6"
        } ]
      }, {
        "title": "QuestionnaireResponse",
        "entry": [ {
          "reference": "urn:uuid:01bdbef7-392a-4fef-9605-5122539b7248"
        } ]
      }, {
        "title": "QuestionnaireResponse",
        "entry": [ {
          "reference": "urn:uuid:284d452b-721d-4e0d-96b0-4a837dec5fa9"
        } ]
      }, {
        "title": "QuestionnaireResponse",
        "entry": [ {
          "reference": "urn:uuid:7907b207-9a7a-414f-8c79-587ee626dd8b"
        } ]
      }, {
        "title": "QuestionnaireResponse",
        "entry": [ {
          "reference": "urn:uuid:8232db78-4620-4577-a138-33044ccfa594"
        } ]
      }, {
        "title": "QuestionnaireResponse",
        "entry": [ {
          "reference": "urn:uuid:0c228e9e-4cbb-45bd-934d-9aa2635a89c9"
        } ]
      }, {
        "title": "QuestionnaireResponse",
        "entry": [ {
          "reference": "urn:uuid:f1d34ea1-dad7-4b78-9aa7-61738e29e5f3"
        } ]
      }, {
        "title": "QuestionnaireResponse",
        "entry": [ {
          "reference": "urn:uuid:5f2dacf9-ecb9-4736-b462-a36e9ffd2290"
        } ]
      }, {
        "title": "QuestionnaireResponse",
        "entry": [ {
          "reference": "urn:uuid:9ab734b2-0f81-4147-8b23-b061ac6da8cc"
        } ]
      }, {
        "title": "QuestionnaireResponse",
        "entry": [ {
          "reference": "urn:uuid:002e84cb-5a78-4047-9377-e6c414a00ac4"
        } ]
      }, {
        "title": "QuestionnaireResponse",
        "entry": [ {
          "reference": "urn:uuid:24c8d494-cd03-4a7b-be1d-f05e569480c0"
        } ]
      }, {
        "title": "QuestionnaireResponse",
        "entry": [ {
          "reference": "urn:uuid:faa07d72-bd2f-4e11-988e-bdaa3f47a07b"
        } ]
      }, {
        "title": "QuestionnaireResponse",
        "entry": [ {
          "reference": "urn:uuid:79e0532f-7bb8-4d84-89a6-54addb14ea5d"
        } ]
      }, {
        "title": "QuestionnaireResponse",
        "entry": [ {
          "reference": "urn:uuid:1343b1b1-11f7-439b-a83d-78e92c4485d1"
        } ]
      }, {
        "title": "QuestionnaireResponse",
        "entry": [ {
          "reference": "urn:uuid:62034186-4e58-4d2d-af18-5ff4885db029"
        } ]
      }, {
        "title": "QuestionnaireResponse",
        "entry": [ {
          "reference": "urn:uuid:6c11aa29-11d8-4554-b110-0ecea6ba1125"
        } ]
      }, {
        "title": "QuestionnaireResponse",
        "entry": [ {
          "reference": "urn:uuid:3d1c707c-091c-449a-9378-4ee04948b0c8"
        } ]
      }, {
        "title": "QuestionnaireResponse",
        "entry": [ {
          "reference": "urn:uuid:2d973440-7437-4e92-9deb-d5aca76437cf"
        } ]
      }, {
        "title": "QuestionnaireResponse",
        "entry": [ {
          "reference": "urn:uuid:1844b4af-978d-4d87-ac1b-7403e11fb69d"
        } ]
      }, {
        "title": "QuestionnaireResponse",
        "entry": [ {
          "reference": "urn:uuid:27567eef-8f07-41e8-b5b3-c56cebf90543"
        } ]
      }, {
        "title": "QuestionnaireResponse",
        "entry": [ {
          "reference": "urn:uuid:c83d4dff-e3e4-4da0-b3a9-95a8672a8e7b"
        } ]
      }, {
        "title": "QuestionnaireResponse",
        "entry": [ {
          "reference": "urn:uuid:36ccf885-31a3-4e71-bff8-a4c9ec689860"
        } ]
      }, {
        "title": "QuestionnaireResponse",
        "entry": [ {
          "reference": "urn:uuid:4e9cf082-d1ed-473a-b3a5-3c5f28d42be2"
        } ]
      }, {
        "title": "QuestionnaireResponse",
        "entry": [ {
          "reference": "urn:uuid:fb4ffa9e-aedb-47eb-a312-2955e96cc53e"
        } ]
      }, {
        "title": "QuestionnaireResponse",
        "entry": [ {
          "reference": "urn:uuid:3935a24d-e226-4745-b32f-1b833fa7266f"
        } ]
      }, {
        "title": "QuestionnaireResponse",
        "entry": [ {
          "reference": "urn:uuid:6e626131-0b45-4def-8daa-1944d443dd23"
        } ]
      }, {
        "title": "QuestionnaireResponse",
        "entry": [ {
          "reference": "urn:uuid:0d058739-b553-48b4-8e9d-d478029fef9f"
        } ]
      }, {
        "title": "QuestionnaireResponse",
        "entry": [ {
          "reference": "urn:uuid:ff7b91dd-4e7d-4783-87d5-39bf821ae1ff"
        } ]
      }, {
        "title": "QuestionnaireResponse",
        "entry": [ {
          "reference": "urn:uuid:05434dde-a540-4207-a51b-3510841bfe18"
        } ]
      }, {
        "title": "QuestionnaireResponse",
        "entry": [ {
          "reference": "urn:uuid:3bca9093-4e0b-44c8-8fe6-37ad3730889e"
        } ]
      }, {
        "title": "QuestionnaireResponse",
        "entry": [ {
          "reference": "urn:uuid:128f9b25-3dad-4651-a046-2b753e31be7f"
        } ]
      }, {
        "title": "QuestionnaireResponse",
        "entry": [ {
          "reference": "urn:uuid:93c54c65-b86e-4b8b-9521-eb09c9119341"
        } ]
      }, {
        "title": "QuestionnaireResponse",
        "entry": [ {
          "reference": "urn:uuid:819e5de8-29f7-4ff4-9c21-8d7e098aa697"
        } ]
      }, {
        "title": "QuestionnaireResponse",
        "entry": [ {
          "reference": "urn:uuid:60160479-36b4-413f-a2a7-06a8182eacb2"
        } ]
      }, {
        "title": "QuestionnaireResponse",
        "entry": [ {
          "reference": "urn:uuid:f4e4754f-0bfd-40f5-bd2d-8900d2e58b9f"
        } ]
      }, {
        "title": "QuestionnaireResponse",
        "entry": [ {
          "reference": "urn:uuid:7b40c038-b282-4f04-ac0f-498ac92152ca"
        } ]
      }, {
        "title": "QuestionnaireResponse",
        "entry": [ {
          "reference": "urn:uuid:26313f00-e807-470d-a83f-86893affff49"
        } ]
      }, {
        "title": "QuestionnaireResponse",
        "entry": [ {
          "reference": "urn:uuid:3fd1c1f7-cfe4-4559-a912-5cfc7eb85095"
        } ]
      }, {
        "title": "QuestionnaireResponse",
        "entry": [ {
          "reference": "urn:uuid:dbe3b80f-d68e-4ad5-bb8f-9c8885708f4f"
        } ]
      }, {
        "title": "QuestionnaireResponse",
        "entry": [ {
          "reference": "urn:uuid:5e97245c-b0c6-40fd-bed9-82d8f3637c29"
        } ]
      }, {
        "title": "QuestionnaireResponse",
        "entry": [ {
          "reference": "urn:uuid:32d6c00b-152c-4ba9-b597-2ebec0b2b524"
        } ]
      }, {
        "title": "QuestionnaireResponse",
        "entry": [ {
          "reference": "urn:uuid:32fe1e52-22f9-48d3-9b27-427cfa7a0f20"
        } ]
      }, {
        "title": "QuestionnaireResponse",
        "entry": [ {
          "reference": "urn:uuid:1c6b2805-7fdf-479f-ad8a-8b48e6e644b6"
        } ]
      }, {
        "title": "QuestionnaireResponse",
        "entry": [ {
          "reference": "urn:uuid:46e32e45-5db0-4f4a-a775-b81aa6be586a"
        } ]
      }, {
        "title": "QuestionnaireResponse",
        "entry": [ {
          "reference": "urn:uuid:b81669be-5e21-4bf6-983b-ccd1358e73db"
        } ]
      }, {
        "title": "QuestionnaireResponse",
        "entry": [ {
          "reference": "urn:uuid:53436687-618d-46a9-9aa7-6b55c0ea8eb7"
        } ]
      }, {
        "title": "QuestionnaireResponse",
        "entry": [ {
          "reference": "urn:uuid:62c193ed-65af-48f6-ab58-2dac80437c71"
        } ]
      }, {
        "title": "QuestionnaireResponse",
        "entry": [ {
          "reference": "urn:uuid:504f52e3-7fe2-4bb3-9a7b-1e526b3ae457"
        } ]
      }, {
        "title": "QuestionnaireResponse",
        "entry": [ {
          "reference": "urn:uuid:2a26c8fd-d0f3-48ad-bc6b-1a461d948220"
        } ]
      } ]
    }
  }, {
    "fullUrl": "urn:uuid:f8151ebd-f952-472f-8be8-e3a29b971315",
    "resource": {
      "resourceType": "CarePlan",
      "id": "f8151ebd-f952-472f-8be8-e3a29b971315",
      "status": "completed",
      "intent": "plan",
      "title": "Information And Advice Given",
      "subject": {
        "reference": "urn:uuid:b9cefb71-4090-4b6f-8d8b-07d90793ecbd"
      },
      "context": {
        "reference": "urn:uuid:6c961885-4c09-47d8-be16-2e7ee04aff3b"
      },
      "period": {
        "start": "2021-04-06T11:29:27+00:00"
      },
      "addresses": [ {
        "reference": "urn:uuid:38a9141d-6d05-4cc2-be9d-6defbc57108f"
      } ]
    }
  }, {
    "fullUrl": "urn:uuid:ee2194c0-b829-4bde-9a6d-0b16b59300a4",
    "resource": {
      "resourceType": "Consent",
      "id": "ee2194c0-b829-4bde-9a6d-0b16b59300a4",
      "identifier": {
        "use": "usual",
        "value": "B66502CD-A9B4-4F3E-83EB-981F572C2C91"
      },
      "status": "active",
      "patient": {
        "reference": "urn:uuid:b9cefb71-4090-4b6f-8d8b-07d90793ecbd"
      },
      "period": {
        "start": "2021-04-06T11:29:27+00:00"
      },
      "consentingParty": [ {
        "reference": "urn:uuid:b9cefb71-4090-4b6f-8d8b-07d90793ecbd"
      } ],
      "action": [ {
        "coding": [ {
          "system": "http://snomed.info/sct",
          "code": "425691002",
          "display": "Consent given for electronic record sharing"
        } ],
        "text": "Consent given for electronic record sharing"
      } ],
      "organization": [ {
        "reference": "urn:uuid:9f2e6321-4be7-40ec-8d8f-e667921aeef3"
      } ],
      "policyRule": "http://hl7.org/fhir/ConsentPolicy/opt-out",
      "data": [ {
        "meaning": "related",
        "reference": {
          "reference": "urn:uuid:6c961885-4c09-47d8-be16-2e7ee04aff3b"
        }
      } ]
    }
  }, {
    "fullUrl": "urn:uuid:38a9141d-6d05-4cc2-be9d-6defbc57108f",
    "resource": {
      "resourceType": "Condition",
      "id": "38a9141d-6d05-4cc2-be9d-6defbc57108f",
      "clinicalStatus": "active",
      "verificationStatus": "unknown",
      "subject": {
        "reference": "urn:uuid:b9cefb71-4090-4b6f-8d8b-07d90793ecbd"
      },
      "context": {
        "reference": "urn:uuid:6c961885-4c09-47d8-be16-2e7ee04aff3b"
      },
      "evidence": [ {
        "detail": [ {
          "reference": "urn:uuid:c99dae40-399a-4d1c-9060-7a6ba01fc9bd"
        } ]
      }, {
        "detail": [ {
          "reference": "urn:uuid:72a6c039-fe9b-44a9-b830-dd631912eaa3"
        } ]
      }, {
        "detail": [ {
          "reference": "urn:uuid:28581685-7dd0-4711-aec4-184d4286f0ff"
        } ]
      }, {
        "detail": [ {
          "reference": "urn:uuid:d1b4a3ff-2a5a-4224-bdb1-c3d6bedd869f"
        } ]
      }, {
        "detail": [ {
          "reference": "urn:uuid:8f89b1bb-4098-4633-995e-8b9062f03e81"
        } ]
      }, {
        "detail": [ {
          "reference": "urn:uuid:4cc639e9-02f3-4a14-8ec4-e2aafa24f9d0"
        } ]
      }, {
        "detail": [ {
          "reference": "urn:uuid:916d5a8b-4d57-431b-adf5-d80fbf40240b"
        } ]
      }, {
        "detail": [ {
          "reference": "urn:uuid:519db5be-58f5-4863-9b75-8736e14c0e54"
        } ]
      }, {
        "detail": [ {
          "reference": "urn:uuid:c0d55c2c-c6c6-4ab9-946d-96d768eb5d15"
        } ]
      }, {
        "detail": [ {
          "reference": "urn:uuid:eb28bf95-d750-4171-8c88-8d5ec6dacd69"
        } ]
      }, {
        "detail": [ {
          "reference": "urn:uuid:a5728133-e663-4fce-9350-5b7afb51b81d"
        } ]
      }, {
        "detail": [ {
          "reference": "urn:uuid:a2138608-c5e3-43e4-82f1-1b20edb1ec03"
        } ]
      }, {
        "detail": [ {
          "reference": "urn:uuid:8cc0c4cc-d05c-4c5a-9480-373c1801bac6"
        } ]
      }, {
        "detail": [ {
          "reference": "urn:uuid:01bdbef7-392a-4fef-9605-5122539b7248"
        } ]
      }, {
        "detail": [ {
          "reference": "urn:uuid:284d452b-721d-4e0d-96b0-4a837dec5fa9"
        } ]
      }, {
        "detail": [ {
          "reference": "urn:uuid:7907b207-9a7a-414f-8c79-587ee626dd8b"
        } ]
      }, {
        "detail": [ {
          "reference": "urn:uuid:8232db78-4620-4577-a138-33044ccfa594"
        } ]
      }, {
        "detail": [ {
          "reference": "urn:uuid:0c228e9e-4cbb-45bd-934d-9aa2635a89c9"
        } ]
      }, {
        "detail": [ {
          "reference": "urn:uuid:f1d34ea1-dad7-4b78-9aa7-61738e29e5f3"
        } ]
      }, {
        "detail": [ {
          "reference": "urn:uuid:5f2dacf9-ecb9-4736-b462-a36e9ffd2290"
        } ]
      }, {
        "detail": [ {
          "reference": "urn:uuid:9ab734b2-0f81-4147-8b23-b061ac6da8cc"
        } ]
      }, {
        "detail": [ {
          "reference": "urn:uuid:002e84cb-5a78-4047-9377-e6c414a00ac4"
        } ]
      }, {
        "detail": [ {
          "reference": "urn:uuid:24c8d494-cd03-4a7b-be1d-f05e569480c0"
        } ]
      }, {
        "detail": [ {
          "reference": "urn:uuid:faa07d72-bd2f-4e11-988e-bdaa3f47a07b"
        } ]
      }, {
        "detail": [ {
          "reference": "urn:uuid:79e0532f-7bb8-4d84-89a6-54addb14ea5d"
        } ]
      }, {
        "detail": [ {
          "reference": "urn:uuid:1343b1b1-11f7-439b-a83d-78e92c4485d1"
        } ]
      }, {
        "detail": [ {
          "reference": "urn:uuid:62034186-4e58-4d2d-af18-5ff4885db029"
        } ]
      }, {
        "detail": [ {
          "reference": "urn:uuid:6c11aa29-11d8-4554-b110-0ecea6ba1125"
        } ]
      }, {
        "detail": [ {
          "reference": "urn:uuid:3d1c707c-091c-449a-9378-4ee04948b0c8"
        } ]
      }, {
        "detail": [ {
          "reference": "urn:uuid:2d973440-7437-4e92-9deb-d5aca76437cf"
        } ]
      }, {
        "detail": [ {
          "reference": "urn:uuid:1844b4af-978d-4d87-ac1b-7403e11fb69d"
        } ]
      }, {
        "detail": [ {
          "reference": "urn:uuid:27567eef-8f07-41e8-b5b3-c56cebf90543"
        } ]
      }, {
        "detail": [ {
          "reference": "urn:uuid:c83d4dff-e3e4-4da0-b3a9-95a8672a8e7b"
        } ]
      }, {
        "detail": [ {
          "reference": "urn:uuid:36ccf885-31a3-4e71-bff8-a4c9ec689860"
        } ]
      }, {
        "detail": [ {
          "reference": "urn:uuid:4e9cf082-d1ed-473a-b3a5-3c5f28d42be2"
        } ]
      }, {
        "detail": [ {
          "reference": "urn:uuid:fb4ffa9e-aedb-47eb-a312-2955e96cc53e"
        } ]
      }, {
        "detail": [ {
          "reference": "urn:uuid:3935a24d-e226-4745-b32f-1b833fa7266f"
        } ]
      }, {
        "detail": [ {
          "reference": "urn:uuid:6e626131-0b45-4def-8daa-1944d443dd23"
        } ]
      }, {
        "detail": [ {
          "reference": "urn:uuid:0d058739-b553-48b4-8e9d-d478029fef9f"
        } ]
      }, {
        "detail": [ {
          "reference": "urn:uuid:ff7b91dd-4e7d-4783-87d5-39bf821ae1ff"
        } ]
      }, {
        "detail": [ {
          "reference": "urn:uuid:05434dde-a540-4207-a51b-3510841bfe18"
        } ]
      }, {
        "detail": [ {
          "reference": "urn:uuid:3bca9093-4e0b-44c8-8fe6-37ad3730889e"
        } ]
      }, {
        "detail": [ {
          "reference": "urn:uuid:128f9b25-3dad-4651-a046-2b753e31be7f"
        } ]
      }, {
        "detail": [ {
          "reference": "urn:uuid:93c54c65-b86e-4b8b-9521-eb09c9119341"
        } ]
      }, {
        "detail": [ {
          "reference": "urn:uuid:819e5de8-29f7-4ff4-9c21-8d7e098aa697"
        } ]
      }, {
        "detail": [ {
          "reference": "urn:uuid:60160479-36b4-413f-a2a7-06a8182eacb2"
        } ]
      }, {
        "detail": [ {
          "reference": "urn:uuid:f4e4754f-0bfd-40f5-bd2d-8900d2e58b9f"
        } ]
      }, {
        "detail": [ {
          "reference": "urn:uuid:7b40c038-b282-4f04-ac0f-498ac92152ca"
        } ]
      }, {
        "detail": [ {
          "reference": "urn:uuid:26313f00-e807-470d-a83f-86893affff49"
        } ]
      }, {
        "detail": [ {
          "reference": "urn:uuid:3fd1c1f7-cfe4-4559-a912-5cfc7eb85095"
        } ]
      }, {
        "detail": [ {
          "reference": "urn:uuid:dbe3b80f-d68e-4ad5-bb8f-9c8885708f4f"
        } ]
      }, {
        "detail": [ {
          "reference": "urn:uuid:5e97245c-b0c6-40fd-bed9-82d8f3637c29"
        } ]
      }, {
        "detail": [ {
          "reference": "urn:uuid:32d6c00b-152c-4ba9-b597-2ebec0b2b524"
        } ]
      }, {
        "detail": [ {
          "reference": "urn:uuid:32fe1e52-22f9-48d3-9b27-427cfa7a0f20"
        } ]
      }, {
        "detail": [ {
          "reference": "urn:uuid:1c6b2805-7fdf-479f-ad8a-8b48e6e644b6"
        } ]
      }, {
        "detail": [ {
          "reference": "urn:uuid:46e32e45-5db0-4f4a-a775-b81aa6be586a"
        } ]
      }, {
        "detail": [ {
          "reference": "urn:uuid:b81669be-5e21-4bf6-983b-ccd1358e73db"
        } ]
      }, {
        "detail": [ {
          "reference": "urn:uuid:53436687-618d-46a9-9aa7-6b55c0ea8eb7"
        } ]
      }, {
        "detail": [ {
          "reference": "urn:uuid:62c193ed-65af-48f6-ab58-2dac80437c71"
        } ]
      }, {
        "detail": [ {
          "reference": "urn:uuid:504f52e3-7fe2-4bb3-9a7b-1e526b3ae457"
        } ]
      }, {
        "detail": [ {
          "reference": "urn:uuid:2a26c8fd-d0f3-48ad-bc6b-1a461d948220"
        } ]
      } ]
    }
  }, {
    "fullUrl": "urn:uuid:c99dae40-399a-4d1c-9060-7a6ba01fc9bd",
    "resource": {
      "resourceType": "QuestionnaireResponse",
      "id": "c99dae40-399a-4d1c-9060-7a6ba01fc9bd",
      "identifier": {
        "value": "59263"
      },
      "questionnaire": {
        "reference": "urn:uuid:5a678059-3e7d-4b3a-b58a-e8d2b2d9f1a8"
      },
      "status": "completed",
      "subject": {
        "reference": "urn:uuid:b9cefb71-4090-4b6f-8d8b-07d90793ecbd"
      },
      "context": {
        "reference": "urn:uuid:6c961885-4c09-47d8-be16-2e7ee04aff3b"
      },
      "authored": "2021-04-06T11:29:26+00:00",
      "item": [ {
        "linkId": "Tx220074",
        "text": "What is the reason for the contact?",
        "answer": [ {
          "valueString": "an injury or other health problem"
        } ]
      } ]
    }
  }, {
    "fullUrl": "urn:uuid:5a678059-3e7d-4b3a-b58a-e8d2b2d9f1a8",
    "resource": {
      "resourceType": "Questionnaire",
      "id": "5a678059-3e7d-4b3a-b58a-e8d2b2d9f1a8",
      "identifier": [ {
        "value": "59263"
      } ],
      "version": "2021-04-06T11:29:26.887Z",
      "status": "active",
      "experimental": false,
      "date": "2021-04-06T11:29:26+00:00",
      "publisher": "User ID: 'HADFIELDR' User name: 'Ryan Hadfield' User skill set: 'T3'",
      "lastReviewDate": "2021-04-06",
      "contact": [ {
        "telecom": [ {
          "value": "07777 888888"
        } ]
      } ],
      "subjectType": [ "Patient" ],
      "item": [ {
        "linkId": "59263",
        "prefix": "5",
        "text": "What is the reason for the contact?",
        "type": "choice",
        "required": true,
        "repeats": false,
        "option": [ {
          "valueString": "an injury or other health problem, Selected: true"
        }, {
          "valueString": "labour or childbirth, Selected: false"
        }, {
          "valueString": "a need to access another healthcare service, Selected: false"
        }, {
          "valueString": "a healthcare professional requesting contact with another clinician, Selected: false"
        }, {
          "valueString": "a report of results or tests, Selected: false"
        }, {
          "valueString": "a possible failure of contraception, Selected: false"
        }, {
          "valueString": "more, Selected: false"
        } ]
      } ]
    }
  }, {
    "fullUrl": "urn:uuid:72a6c039-fe9b-44a9-b830-dd631912eaa3",
    "resource": {
      "resourceType": "QuestionnaireResponse",
      "id": "72a6c039-fe9b-44a9-b830-dd631912eaa3",
      "identifier": {
        "value": "59263"
      },
      "questionnaire": {
        "reference": "urn:uuid:6bc49b4c-683f-49ac-bd95-dca4b95707c8"
      },
      "status": "completed",
      "subject": {
        "reference": "urn:uuid:b9cefb71-4090-4b6f-8d8b-07d90793ecbd"
      },
      "context": {
        "reference": "urn:uuid:6c961885-4c09-47d8-be16-2e7ee04aff3b"
      },
      "authored": "2021-04-06T11:29:26+00:00",
      "item": [ {
        "linkId": "Tx221807",
        "text": "STRING:to'Immediatethreatstolife(SPA/OOHversion)'-'Majorbloodloss'stem",
        "answer": [ {
          "valueString": "\"present\""
        } ]
      } ]
    }
  }, {
    "fullUrl": "urn:uuid:6bc49b4c-683f-49ac-bd95-dca4b95707c8",
    "resource": {
      "resourceType": "Questionnaire",
      "id": "6bc49b4c-683f-49ac-bd95-dca4b95707c8",
      "identifier": [ {
        "value": "59263"
      } ],
      "version": "2021-04-06T11:29:26.887Z",
      "status": "active",
      "experimental": false,
      "date": "2021-04-06T11:29:26+00:00",
      "publisher": "User ID: 'HADFIELDR' User name: 'Ryan Hadfield' User skill set: 'T3'",
      "lastReviewDate": "2021-04-06",
      "contact": [ {
        "telecom": [ {
          "value": "07777 888888"
        } ]
      } ],
      "subjectType": [ "Patient" ],
      "item": [ {
        "linkId": "59263",
        "prefix": "200",
        "text": "STRING:to'Immediatethreatstolife(SPA/OOHversion)'-'Majorbloodloss'stem",
        "type": "choice",
        "required": true,
        "repeats": false,
        "option": [ {
          "valueString": "\"present\", Selected: true"
        } ]
      } ]
    }
  }, {
    "fullUrl": "urn:uuid:28581685-7dd0-4711-aec4-184d4286f0ff",
    "resource": {
      "resourceType": "QuestionnaireResponse",
      "id": "28581685-7dd0-4711-aec4-184d4286f0ff",
      "identifier": {
        "value": "59263"
      },
      "questionnaire": {
        "reference": "urn:uuid:77309561-56fe-490d-8e44-3354c1cd5fb5"
      },
      "status": "completed",
      "subject": {
        "reference": "urn:uuid:b9cefb71-4090-4b6f-8d8b-07d90793ecbd"
      },
      "context": {
        "reference": "urn:uuid:6c961885-4c09-47d8-be16-2e7ee04aff3b"
      },
      "authored": "2021-04-06T11:29:26+00:00"
    }
  }, {
    "fullUrl": "urn:uuid:77309561-56fe-490d-8e44-3354c1cd5fb5",
    "resource": {
      "resourceType": "Questionnaire",
      "id": "77309561-56fe-490d-8e44-3354c1cd5fb5",
      "identifier": [ {
        "value": "59263"
      } ],
      "version": "2021-04-06T11:29:26.887Z",
      "status": "active",
      "experimental": false,
      "date": "2021-04-06T11:29:26+00:00",
      "publisher": "User ID: 'HADFIELDR' User name: 'Ryan Hadfield' User skill set: 'T3'",
      "lastReviewDate": "2021-04-06",
      "contact": [ {
        "telecom": [ {
          "value": "07777 888888"
        } ]
      } ],
      "subjectType": [ "Patient" ]
    }
  }, {
    "fullUrl": "urn:uuid:d1b4a3ff-2a5a-4224-bdb1-c3d6bedd869f",
    "resource": {
      "resourceType": "QuestionnaireResponse",
      "id": "d1b4a3ff-2a5a-4224-bdb1-c3d6bedd869f",
      "identifier": {
        "value": "59263"
      },
      "questionnaire": {
        "reference": "urn:uuid:b975df26-d107-414b-8429-ff3bd9446545"
      },
      "status": "completed",
      "subject": {
        "reference": "urn:uuid:b9cefb71-4090-4b6f-8d8b-07d90793ecbd"
      },
      "context": {
        "reference": "urn:uuid:6c961885-4c09-47d8-be16-2e7ee04aff3b"
      },
      "authored": "2021-04-06T11:29:26+00:00",
      "item": [ {
        "linkId": "Tx221799",
        "text": "STRING:injury,illnessorlabourestablishedinEntryFlow",
        "answer": [ {
          "valueString": "\"present\""
        } ]
      } ]
    }
  }, {
    "fullUrl": "urn:uuid:b975df26-d107-414b-8429-ff3bd9446545",
    "resource": {
      "resourceType": "Questionnaire",
      "id": "b975df26-d107-414b-8429-ff3bd9446545",
      "identifier": [ {
        "value": "59263"
      } ],
      "version": "2021-04-06T11:29:26.887Z",
      "status": "active",
      "experimental": false,
      "date": "2021-04-06T11:29:26+00:00",
      "publisher": "User ID: 'HADFIELDR' User name: 'Ryan Hadfield' User skill set: 'T3'",
      "lastReviewDate": "2021-04-06",
      "contact": [ {
        "telecom": [ {
          "value": "07777 888888"
        } ]
      } ],
      "subjectType": [ "Patient" ],
      "item": [ {
        "linkId": "59263",
        "prefix": "0",
        "text": "STRING:injury,illnessorlabourestablishedinEntryFlow",
        "type": "choice",
        "required": true,
        "repeats": false,
        "option": [ {
          "valueString": "\"present\", Selected: true"
        } ]
      } ]
    }
  }, {
    "fullUrl": "urn:uuid:8f89b1bb-4098-4633-995e-8b9062f03e81",
    "resource": {
      "resourceType": "QuestionnaireResponse",
      "id": "8f89b1bb-4098-4633-995e-8b9062f03e81",
      "identifier": {
        "value": "59263"
      },
      "questionnaire": {
        "reference": "urn:uuid:bd56ac83-5efd-4ef9-b737-22cd6f2c47bc"
      },
      "status": "completed",
      "subject": {
        "reference": "urn:uuid:b9cefb71-4090-4b6f-8d8b-07d90793ecbd"
      },
      "context": {
        "reference": "urn:uuid:6c961885-4c09-47d8-be16-2e7ee04aff3b"
      },
      "authored": "2021-04-06T11:29:26+00:00",
      "item": [ {
        "linkId": "Tx224120",
        "text": "Have you been bleeding RED BLOOD very heavily IN THE LAST 2 HOURS?"
      } ]
    }
  }, {
    "fullUrl": "urn:uuid:bd56ac83-5efd-4ef9-b737-22cd6f2c47bc",
    "resource": {
      "resourceType": "Questionnaire",
      "id": "bd56ac83-5efd-4ef9-b737-22cd6f2c47bc",
      "identifier": [ {
        "value": "59263"
      } ],
      "version": "2021-04-06T11:29:26.887Z",
      "status": "active",
      "experimental": false,
      "date": "2021-04-06T11:29:26+00:00",
      "publisher": "User ID: 'HADFIELDR' User name: 'Ryan Hadfield' User skill set: 'T3'",
      "lastReviewDate": "2021-04-06",
      "contact": [ {
        "telecom": [ {
          "value": "07777 888888"
        } ]
      } ],
      "subjectType": [ "Patient" ],
      "item": [ {
        "linkId": "59263",
        "prefix": "10100",
        "text": "Have you been bleeding RED BLOOD very heavily IN THE LAST 2 HOURS?",
        "type": "choice",
        "required": true,
        "repeats": false,
        "option": [ {
          "valueString": "yes, Selected: false"
        }, {
          "valueString": "not sure, Selected: false"
        }, {
          "valueString": "no, Selected: false"
        } ]
      } ]
    }
  }, {
    "fullUrl": "urn:uuid:4cc639e9-02f3-4a14-8ec4-e2aafa24f9d0",
    "resource": {
      "resourceType": "QuestionnaireResponse",
      "id": "4cc639e9-02f3-4a14-8ec4-e2aafa24f9d0",
      "identifier": {
        "value": "59263"
      },
      "questionnaire": {
        "reference": "urn:uuid:dbe647cc-11eb-49c5-9406-5cab84c2c0d1"
      },
      "status": "completed",
      "subject": {
        "reference": "urn:uuid:b9cefb71-4090-4b6f-8d8b-07d90793ecbd"
      },
      "context": {
        "reference": "urn:uuid:6c961885-4c09-47d8-be16-2e7ee04aff3b"
      },
      "authored": "2021-04-06T11:29:26+00:00",
      "item": [ {
        "linkId": "Tx220074",
        "text": "What is the reason for the contact?",
        "answer": [ {
          "valueString": "more"
        } ]
      } ]
    }
  }, {
    "fullUrl": "urn:uuid:dbe647cc-11eb-49c5-9406-5cab84c2c0d1",
    "resource": {
      "resourceType": "Questionnaire",
      "id": "dbe647cc-11eb-49c5-9406-5cab84c2c0d1",
      "identifier": [ {
        "value": "59263"
      } ],
      "version": "2021-04-06T11:29:26.887Z",
      "status": "active",
      "experimental": false,
      "date": "2021-04-06T11:29:26+00:00",
      "publisher": "User ID: 'HADFIELDR' User name: 'Ryan Hadfield' User skill set: 'T3'",
      "lastReviewDate": "2021-04-06",
      "contact": [ {
        "telecom": [ {
          "value": "07777 888888"
        } ]
      } ],
      "subjectType": [ "Patient" ],
      "item": [ {
        "linkId": "59263",
        "prefix": "5",
        "text": "What is the reason for the contact?",
        "type": "choice",
        "required": true,
        "repeats": false,
        "option": [ {
          "valueString": "an injury or other health problem, Selected: false"
        }, {
          "valueString": "labour or childbirth, Selected: false"
        }, {
          "valueString": "a need to access another healthcare service, Selected: false"
        }, {
          "valueString": "a healthcare professional requesting contact with another clinician, Selected: false"
        }, {
          "valueString": "a report of results or tests, Selected: false"
        }, {
          "valueString": "a possible failure of contraception, Selected: false"
        }, {
          "valueString": "more, Selected: true"
        } ]
      } ]
    }
  }, {
    "fullUrl": "urn:uuid:916d5a8b-4d57-431b-adf5-d80fbf40240b",
    "resource": {
      "resourceType": "QuestionnaireResponse",
      "id": "916d5a8b-4d57-431b-adf5-d80fbf40240b",
      "identifier": {
        "value": "59263"
      },
      "questionnaire": {
        "reference": "urn:uuid:44546759-5dcf-46d8-84bb-b56ed6d6f4d8"
      },
      "status": "completed",
      "subject": {
        "reference": "urn:uuid:b9cefb71-4090-4b6f-8d8b-07d90793ecbd"
      },
      "context": {
        "reference": "urn:uuid:6c961885-4c09-47d8-be16-2e7ee04aff3b"
      },
      "authored": "2021-04-06T11:29:26+00:00",
      "item": [ {
        "linkId": "Tx221793",
        "text": "STRING:to'Social&information'-further'Callreason'menu",
        "answer": [ {
          "valueString": "\"present\""
        } ]
      } ]
    }
  }, {
    "fullUrl": "urn:uuid:44546759-5dcf-46d8-84bb-b56ed6d6f4d8",
    "resource": {
      "resourceType": "Questionnaire",
      "id": "44546759-5dcf-46d8-84bb-b56ed6d6f4d8",
      "identifier": [ {
        "value": "59263"
      } ],
      "version": "2021-04-06T11:29:26.887Z",
      "status": "active",
      "experimental": false,
      "date": "2021-04-06T11:29:26+00:00",
      "publisher": "User ID: 'HADFIELDR' User name: 'Ryan Hadfield' User skill set: 'T3'",
      "lastReviewDate": "2021-04-06",
      "contact": [ {
        "telecom": [ {
          "value": "07777 888888"
        } ]
      } ],
      "subjectType": [ "Patient" ],
      "item": [ {
        "linkId": "59263",
        "prefix": "600",
        "text": "STRING:to'Social&information'-further'Callreason'menu",
        "type": "choice",
        "required": true,
        "repeats": false,
        "option": [ {
          "valueString": "\"present\", Selected: true"
        } ]
      } ]
    }
  }, {
    "fullUrl": "urn:uuid:519db5be-58f5-4863-9b75-8736e14c0e54",
    "resource": {
      "resourceType": "QuestionnaireResponse",
      "id": "519db5be-58f5-4863-9b75-8736e14c0e54",
      "identifier": {
        "value": "59263"
      },
      "questionnaire": {
        "reference": "urn:uuid:cd3fcb7a-15b7-434a-bc93-8f6f101be493"
      },
      "status": "completed",
      "subject": {
        "reference": "urn:uuid:b9cefb71-4090-4b6f-8d8b-07d90793ecbd"
      },
      "context": {
        "reference": "urn:uuid:6c961885-4c09-47d8-be16-2e7ee04aff3b"
      },
      "authored": "2021-04-06T11:29:26+00:00"
    }
  }, {
    "fullUrl": "urn:uuid:cd3fcb7a-15b7-434a-bc93-8f6f101be493",
    "resource": {
      "resourceType": "Questionnaire",
      "id": "cd3fcb7a-15b7-434a-bc93-8f6f101be493",
      "identifier": [ {
        "value": "59263"
      } ],
      "version": "2021-04-06T11:29:26.887Z",
      "status": "active",
      "experimental": false,
      "date": "2021-04-06T11:29:26+00:00",
      "publisher": "User ID: 'HADFIELDR' User name: 'Ryan Hadfield' User skill set: 'T3'",
      "lastReviewDate": "2021-04-06",
      "contact": [ {
        "telecom": [ {
          "value": "07777 888888"
        } ]
      } ],
      "subjectType": [ "Patient" ]
    }
  }, {
    "fullUrl": "urn:uuid:c0d55c2c-c6c6-4ab9-946d-96d768eb5d15",
    "resource": {
      "resourceType": "QuestionnaireResponse",
      "id": "c0d55c2c-c6c6-4ab9-946d-96d768eb5d15",
      "identifier": {
        "value": "59263"
      },
      "questionnaire": {
        "reference": "urn:uuid:842015fc-f3f5-4b94-ad34-7292d5585376"
      },
      "status": "completed",
      "subject": {
        "reference": "urn:uuid:b9cefb71-4090-4b6f-8d8b-07d90793ecbd"
      },
      "context": {
        "reference": "urn:uuid:6c961885-4c09-47d8-be16-2e7ee04aff3b"
      },
      "authored": "2021-04-06T11:29:26+00:00",
      "item": [ {
        "linkId": "Tx221804",
        "text": "STRING:transfertofurthermenuquestionestablishedinEntryFlow",
        "answer": [ {
          "valueString": "\"present\""
        } ]
      } ]
    }
  }, {
    "fullUrl": "urn:uuid:842015fc-f3f5-4b94-ad34-7292d5585376",
    "resource": {
      "resourceType": "Questionnaire",
      "id": "842015fc-f3f5-4b94-ad34-7292d5585376",
      "identifier": [ {
        "value": "59263"
      } ],
      "version": "2021-04-06T11:29:26.887Z",
      "status": "active",
      "experimental": false,
      "date": "2021-04-06T11:29:26+00:00",
      "publisher": "User ID: 'HADFIELDR' User name: 'Ryan Hadfield' User skill set: 'T3'",
      "lastReviewDate": "2021-04-06",
      "contact": [ {
        "telecom": [ {
          "value": "07777 888888"
        } ]
      } ],
      "subjectType": [ "Patient" ],
      "item": [ {
        "linkId": "59263",
        "prefix": "41",
        "text": "STRING:transfertofurthermenuquestionestablishedinEntryFlow",
        "type": "choice",
        "required": true,
        "repeats": false,
        "option": [ {
          "valueString": "\"present\", Selected: true"
        } ]
      } ]
    }
  }, {
    "fullUrl": "urn:uuid:eb28bf95-d750-4171-8c88-8d5ec6dacd69",
    "resource": {
      "resourceType": "QuestionnaireResponse",
      "id": "eb28bf95-d750-4171-8c88-8d5ec6dacd69",
      "identifier": {
        "value": "59263"
      },
      "questionnaire": {
        "reference": "urn:uuid:fa37b684-61e1-4e37-99e3-1bdae503644b"
      },
      "status": "completed",
      "subject": {
        "reference": "urn:uuid:b9cefb71-4090-4b6f-8d8b-07d90793ecbd"
      },
      "context": {
        "reference": "urn:uuid:6c961885-4c09-47d8-be16-2e7ee04aff3b"
      },
      "authored": "2021-04-06T11:29:26+00:00",
      "item": [ {
        "linkId": "Tx224998",
        "text": "SYSTEM_COVIDLEVEL2",
        "answer": [ {
          "valueString": "==\"covidlevel2\""
        } ]
      } ]
    }
  }, {
    "fullUrl": "urn:uuid:fa37b684-61e1-4e37-99e3-1bdae503644b",
    "resource": {
      "resourceType": "Questionnaire",
      "id": "fa37b684-61e1-4e37-99e3-1bdae503644b",
      "identifier": [ {
        "value": "59263"
      } ],
      "version": "2021-04-06T11:29:26.887Z",
      "status": "active",
      "experimental": false,
      "date": "2021-04-06T11:29:26+00:00",
      "publisher": "User ID: 'HADFIELDR' User name: 'Ryan Hadfield' User skill set: 'T3'",
      "lastReviewDate": "2021-04-06",
      "contact": [ {
        "telecom": [ {
          "value": "07777 888888"
        } ]
      } ],
      "subjectType": [ "Patient" ],
      "item": [ {
        "linkId": "59263",
        "prefix": "5900",
        "text": "SYSTEM_COVIDLEVEL2",
        "type": "choice",
        "required": true,
        "repeats": false,
        "option": [ {
          "valueString": "==\"covidlevel2\", Selected: true"
        }, {
          "valueString": "*, Selected: false"
        } ]
      } ]
    }
  }, {
    "fullUrl": "urn:uuid:a5728133-e663-4fce-9350-5b7afb51b81d",
    "resource": {
      "resourceType": "QuestionnaireResponse",
      "id": "a5728133-e663-4fce-9350-5b7afb51b81d",
      "identifier": {
        "value": "59263"
      },
      "questionnaire": {
        "reference": "urn:uuid:136a4045-b954-49fe-bd70-106ead0cc83b"
      },
      "status": "completed",
      "subject": {
        "reference": "urn:uuid:b9cefb71-4090-4b6f-8d8b-07d90793ecbd"
      },
      "context": {
        "reference": "urn:uuid:6c961885-4c09-47d8-be16-2e7ee04aff3b"
      },
      "authored": "2021-04-06T11:29:26+00:00",
      "item": [ {
        "linkId": "Tx225069",
        "text": "What is the reason for the contact?",
        "answer": [ {
          "valueString": "a prescription request"
        } ]
      } ]
    }
  }, {
    "fullUrl": "urn:uuid:136a4045-b954-49fe-bd70-106ead0cc83b",
    "resource": {
      "resourceType": "Questionnaire",
      "id": "136a4045-b954-49fe-bd70-106ead0cc83b",
      "identifier": [ {
        "value": "59263"
      } ],
      "version": "2021-04-06T11:29:26.887Z",
      "status": "active",
      "experimental": false,
      "date": "2021-04-06T11:29:26+00:00",
      "publisher": "User ID: 'HADFIELDR' User name: 'Ryan Hadfield' User skill set: 'T3'",
      "lastReviewDate": "2021-04-06",
      "contact": [ {
        "telecom": [ {
          "value": "07777 888888"
        } ]
      } ],
      "subjectType": [ "Patient" ],
      "item": [ {
        "linkId": "59263",
        "prefix": "6000",
        "text": "What is the reason for the contact?",
        "type": "choice",
        "required": true,
        "repeats": false,
        "option": [ {
          "valueString": "a child protection/vulnerable adult concern (specify), Selected: false"
        }, {
          "valueString": "a social or domestic emergency, Selected: false"
        }, {
          "valueString": "a prescription request, Selected: true"
        }, {
          "valueString": "an appointment request, Selected: false"
        }, {
          "valueString": "a request for health or medication information, Selected: false"
        }, {
          "valueString": "public health alert information, Selected: false"
        } ]
      } ]
    }
  }, {
    "fullUrl": "urn:uuid:a2138608-c5e3-43e4-82f1-1b20edb1ec03",
    "resource": {
      "resourceType": "QuestionnaireResponse",
      "id": "a2138608-c5e3-43e4-82f1-1b20edb1ec03",
      "identifier": {
        "value": "59263"
      },
      "questionnaire": {
        "reference": "urn:uuid:825655b3-4612-462c-bbf6-1b171e24c974"
      },
      "status": "completed",
      "subject": {
        "reference": "urn:uuid:b9cefb71-4090-4b6f-8d8b-07d90793ecbd"
      },
      "context": {
        "reference": "urn:uuid:6c961885-4c09-47d8-be16-2e7ee04aff3b"
      },
      "authored": "2021-04-06T11:29:26+00:00",
      "item": [ {
        "linkId": "Tx220957",
        "text": "Is this contact about a new or worsening illness?",
        "answer": [ {
          "valueString": "no"
        } ]
      } ]
    }
  }, {
    "fullUrl": "urn:uuid:825655b3-4612-462c-bbf6-1b171e24c974",
    "resource": {
      "resourceType": "Questionnaire",
      "id": "825655b3-4612-462c-bbf6-1b171e24c974",
      "identifier": [ {
        "value": "59263"
      } ],
      "version": "2021-04-06T11:29:26.887Z",
      "status": "active",
      "experimental": false,
      "date": "2021-04-06T11:29:26+00:00",
      "publisher": "User ID: 'HADFIELDR' User name: 'Ryan Hadfield' User skill set: 'T3'",
      "lastReviewDate": "2021-04-06",
      "contact": [ {
        "telecom": [ {
          "value": "07777 888888"
        } ]
      } ],
      "subjectType": [ "Patient" ],
      "item": [ {
        "linkId": "59263",
        "prefix": "1400",
        "text": "Is this contact about a new or worsening illness?",
        "type": "choice",
        "required": true,
        "repeats": false,
        "option": [ {
          "valueString": "yes, Selected: false"
        }, {
          "valueString": "not sure, Selected: false"
        }, {
          "valueString": "no, Selected: true"
        } ]
      } ]
    }
  }, {
    "fullUrl": "urn:uuid:8cc0c4cc-d05c-4c5a-9480-373c1801bac6",
    "resource": {
      "resourceType": "QuestionnaireResponse",
      "id": "8cc0c4cc-d05c-4c5a-9480-373c1801bac6",
      "identifier": {
        "value": "59263"
      },
      "questionnaire": {
        "reference": "urn:uuid:5efff03f-248d-48fa-ab2e-598872a6ef3c"
      },
      "status": "completed",
      "subject": {
        "reference": "urn:uuid:b9cefb71-4090-4b6f-8d8b-07d90793ecbd"
      },
      "context": {
        "reference": "urn:uuid:6c961885-4c09-47d8-be16-2e7ee04aff3b"
      },
      "authored": "2021-04-06T11:29:26+00:00",
      "item": [ {
        "linkId": "Tx221352",
        "text": "Have you got enough medication to last until the surgery opens?",
        "answer": [ {
          "valueString": "no"
        } ]
      } ]
    }
  }, {
    "fullUrl": "urn:uuid:5efff03f-248d-48fa-ab2e-598872a6ef3c",
    "resource": {
      "resourceType": "Questionnaire",
      "id": "5efff03f-248d-48fa-ab2e-598872a6ef3c",
      "identifier": [ {
        "value": "59263"
      } ],
      "version": "2021-04-06T11:29:26.887Z",
      "status": "active",
      "experimental": false,
      "date": "2021-04-06T11:29:26+00:00",
      "publisher": "User ID: 'HADFIELDR' User name: 'Ryan Hadfield' User skill set: 'T3'",
      "lastReviewDate": "2021-04-06",
      "contact": [ {
        "telecom": [ {
          "value": "07777 888888"
        } ]
      } ],
      "subjectType": [ "Patient" ],
      "item": [ {
        "linkId": "59263",
        "prefix": "1500",
        "text": "Have you got enough medication to last until the surgery opens?",
        "type": "choice",
        "required": true,
        "repeats": false,
        "option": [ {
          "valueString": "yes, Selected: false"
        }, {
          "valueString": "not sure, Selected: false"
        }, {
          "valueString": "no, Selected: true"
        } ]
      } ]
    }
  }, {
    "fullUrl": "urn:uuid:01bdbef7-392a-4fef-9605-5122539b7248",
    "resource": {
      "resourceType": "QuestionnaireResponse",
      "id": "01bdbef7-392a-4fef-9605-5122539b7248",
      "identifier": {
        "value": "59263"
      },
      "questionnaire": {
        "reference": "urn:uuid:0ef3b6a2-b6a7-47cf-b4bc-406feb783dab"
      },
      "status": "completed",
      "subject": {
        "reference": "urn:uuid:b9cefb71-4090-4b6f-8d8b-07d90793ecbd"
      },
      "context": {
        "reference": "urn:uuid:6c961885-4c09-47d8-be16-2e7ee04aff3b"
      },
      "authored": "2021-04-06T11:29:26+00:00"
    }
  }, {
    "fullUrl": "urn:uuid:0ef3b6a2-b6a7-47cf-b4bc-406feb783dab",
    "resource": {
      "resourceType": "Questionnaire",
      "id": "0ef3b6a2-b6a7-47cf-b4bc-406feb783dab",
      "identifier": [ {
        "value": "59263"
      } ],
      "version": "2021-04-06T11:29:26.887Z",
      "status": "active",
      "experimental": false,
      "date": "2021-04-06T11:29:26+00:00",
      "publisher": "User ID: 'HADFIELDR' User name: 'Ryan Hadfield' User skill set: 'T3'",
      "lastReviewDate": "2021-04-06",
      "contact": [ {
        "telecom": [ {
          "value": "07777 888888"
        } ]
      } ],
      "subjectType": [ "Patient" ]
    }
  }, {
    "fullUrl": "urn:uuid:284d452b-721d-4e0d-96b0-4a837dec5fa9",
    "resource": {
      "resourceType": "QuestionnaireResponse",
      "id": "284d452b-721d-4e0d-96b0-4a837dec5fa9",
      "identifier": {
        "value": "59263"
      },
      "questionnaire": {
        "reference": "urn:uuid:74ea2781-81f9-4423-a3e4-61c2ef49511f"
      },
      "status": "completed",
      "subject": {
        "reference": "urn:uuid:b9cefb71-4090-4b6f-8d8b-07d90793ecbd"
      },
      "context": {
        "reference": "urn:uuid:6c961885-4c09-47d8-be16-2e7ee04aff3b"
      },
      "authored": "2021-04-06T11:29:26+00:00",
      "item": [ {
        "linkId": "Tx224231",
        "text": "FROM WHAT YOU HAVE HEARD IS A CONSULTATION WITH A PRESCRIBER NEEDED?",
        "answer": [ {
          "valueString": "yes"
        } ]
      } ]
    }
  }, {
    "fullUrl": "urn:uuid:74ea2781-81f9-4423-a3e4-61c2ef49511f",
    "resource": {
      "resourceType": "Questionnaire",
      "id": "74ea2781-81f9-4423-a3e4-61c2ef49511f",
      "identifier": [ {
        "value": "59263"
      } ],
      "version": "2021-04-06T11:29:26.887Z",
      "status": "active",
      "experimental": false,
      "date": "2021-04-06T11:29:26+00:00",
      "publisher": "User ID: 'HADFIELDR' User name: 'Ryan Hadfield' User skill set: 'T3'",
      "lastReviewDate": "2021-04-06",
      "contact": [ {
        "telecom": [ {
          "value": "07777 888888"
        } ]
      } ],
      "subjectType": [ "Patient" ],
      "item": [ {
        "linkId": "59263",
        "prefix": "0",
        "text": "FROM WHAT YOU HAVE HEARD IS A CONSULTATION WITH A PRESCRIBER NEEDED?",
        "type": "choice",
        "required": true,
        "repeats": false,
        "option": [ {
          "valueString": "yes, Selected: true"
        }, {
          "valueString": "not sure, Selected: false"
        }, {
          "valueString": "no, Selected: false"
        } ]
      } ]
    }
  }, {
    "fullUrl": "urn:uuid:7907b207-9a7a-414f-8c79-587ee626dd8b",
    "resource": {
      "resourceType": "QuestionnaireResponse",
      "id": "7907b207-9a7a-414f-8c79-587ee626dd8b",
      "identifier": {
        "value": "59263"
      },
      "questionnaire": {
        "reference": "urn:uuid:377d9326-26fc-4d10-a325-92dc59b0a359"
      },
      "status": "completed",
      "subject": {
        "reference": "urn:uuid:b9cefb71-4090-4b6f-8d8b-07d90793ecbd"
      },
      "context": {
        "reference": "urn:uuid:6c961885-4c09-47d8-be16-2e7ee04aff3b"
      },
      "authored": "2021-04-06T11:29:26+00:00",
      "item": [ {
        "linkId": "Tx221367",
        "text": "When is the next dose due?",
        "answer": [ {
          "valueString": "within the next 12 hours"
        } ]
      } ]
    }
  }, {
    "fullUrl": "urn:uuid:377d9326-26fc-4d10-a325-92dc59b0a359",
    "resource": {
      "resourceType": "Questionnaire",
      "id": "377d9326-26fc-4d10-a325-92dc59b0a359",
      "identifier": [ {
        "value": "59263"
      } ],
      "version": "2021-04-06T11:29:26.887Z",
      "status": "active",
      "experimental": false,
      "date": "2021-04-06T11:29:26+00:00",
      "publisher": "User ID: 'HADFIELDR' User name: 'Ryan Hadfield' User skill set: 'T3'",
      "lastReviewDate": "2021-04-06",
      "contact": [ {
        "telecom": [ {
          "value": "07777 888888"
        } ]
      } ],
      "subjectType": [ "Patient" ],
      "item": [ {
        "linkId": "59263",
        "prefix": "2900",
        "text": "When is the next dose due?",
        "type": "choice",
        "required": true,
        "repeats": false,
        "option": [ {
          "valueString": "within the next 2 hours, Selected: false"
        }, {
          "valueString": "within the next 6 hours, Selected: false"
        }, {
          "valueString": "within the next 12 hours, Selected: true"
        }, {
          "valueString": "over 12 hours time, Selected: false"
        }, {
          "valueString": "not sure, Selected: false"
        } ]
      } ]
    }
  }, {
    "fullUrl": "urn:uuid:8232db78-4620-4577-a138-33044ccfa594",
    "resource": {
      "resourceType": "QuestionnaireResponse",
      "id": "8232db78-4620-4577-a138-33044ccfa594",
      "identifier": {
        "value": "59263"
      },
      "questionnaire": {
        "reference": "urn:uuid:fa40382d-6e59-4d96-8aa6-90a008a0e3d0"
      },
      "status": "completed",
      "subject": {
        "reference": "urn:uuid:b9cefb71-4090-4b6f-8d8b-07d90793ecbd"
      },
      "context": {
        "reference": "urn:uuid:6c961885-4c09-47d8-be16-2e7ee04aff3b"
      },
      "authored": "2021-04-06T11:29:26+00:00",
      "item": [ {
        "linkId": "Tx221449",
        "text": "STRING:SDPCFullPrimaryCareassessmentandprescribingcapability",
        "answer": [ {
          "valueString": "\"PC full Primary Care assessment and prescribing capability\""
        } ]
      } ]
    }
  }, {
    "fullUrl": "urn:uuid:fa40382d-6e59-4d96-8aa6-90a008a0e3d0",
    "resource": {
      "resourceType": "Questionnaire",
      "id": "fa40382d-6e59-4d96-8aa6-90a008a0e3d0",
      "identifier": [ {
        "value": "59263"
      } ],
      "version": "2021-04-06T11:29:26.887Z",
      "status": "active",
      "experimental": false,
      "date": "2021-04-06T11:29:26+00:00",
      "publisher": "User ID: 'HADFIELDR' User name: 'Ryan Hadfield' User skill set: 'T3'",
      "lastReviewDate": "2021-04-06",
      "contact": [ {
        "telecom": [ {
          "value": "07777 888888"
        } ]
      } ],
      "subjectType": [ "Patient" ],
      "item": [ {
        "linkId": "59263",
        "prefix": "3000",
        "text": "STRING:SDPCFullPrimaryCareassessmentandprescribingcapability",
        "type": "choice",
        "required": true,
        "repeats": false,
        "option": [ {
          "valueString": "\"PC full Primary Care assessment and prescribing capability\", Selected: true"
        } ]
      } ]
    }
  }, {
    "fullUrl": "urn:uuid:0c228e9e-4cbb-45bd-934d-9aa2635a89c9",
    "resource": {
      "resourceType": "QuestionnaireResponse",
      "id": "0c228e9e-4cbb-45bd-934d-9aa2635a89c9",
      "identifier": {
        "value": "59263"
      },
      "questionnaire": {
        "reference": "urn:uuid:1dabf07b-e735-451d-948f-92359f60b9db"
      },
      "status": "completed",
      "subject": {
        "reference": "urn:uuid:b9cefb71-4090-4b6f-8d8b-07d90793ecbd"
      },
      "context": {
        "reference": "urn:uuid:6c961885-4c09-47d8-be16-2e7ee04aff3b"
      },
      "authored": "2021-04-06T11:29:26+00:00"
    }
  }, {
    "fullUrl": "urn:uuid:1dabf07b-e735-451d-948f-92359f60b9db",
    "resource": {
      "resourceType": "Questionnaire",
      "id": "1dabf07b-e735-451d-948f-92359f60b9db",
      "identifier": [ {
        "value": "59263"
      } ],
      "version": "2021-04-06T11:29:26.887Z",
      "status": "active",
      "experimental": false,
      "date": "2021-04-06T11:29:26+00:00",
      "publisher": "User ID: 'HADFIELDR' User name: 'Ryan Hadfield' User skill set: 'T3'",
      "lastReviewDate": "2021-04-06",
      "contact": [ {
        "telecom": [ {
          "value": "07777 888888"
        } ]
      } ],
      "subjectType": [ "Patient" ]
    }
  }, {
    "fullUrl": "urn:uuid:f1d34ea1-dad7-4b78-9aa7-61738e29e5f3",
    "resource": {
      "resourceType": "QuestionnaireResponse",
      "id": "f1d34ea1-dad7-4b78-9aa7-61738e29e5f3",
      "identifier": {
        "value": "59263"
      },
      "questionnaire": {
        "reference": "urn:uuid:55208bc2-d272-4827-b5f2-f717ad1ccb63"
      },
      "status": "completed",
      "subject": {
        "reference": "urn:uuid:b9cefb71-4090-4b6f-8d8b-07d90793ecbd"
      },
      "context": {
        "reference": "urn:uuid:6c961885-4c09-47d8-be16-2e7ee04aff3b"
      },
      "authored": "2021-04-06T11:29:26+00:00",
      "item": [ {
        "linkId": "Tx220074",
        "text": "What is the reason for the contact?",
        "answer": [ {
          "valueString": "an injury or other health problem"
        } ]
      } ]
    }
  }, {
    "fullUrl": "urn:uuid:55208bc2-d272-4827-b5f2-f717ad1ccb63",
    "resource": {
      "resourceType": "Questionnaire",
      "id": "55208bc2-d272-4827-b5f2-f717ad1ccb63",
      "identifier": [ {
        "value": "59263"
      } ],
      "version": "2021-04-06T11:29:26.887Z",
      "status": "active",
      "experimental": false,
      "date": "2021-04-06T11:29:26+00:00",
      "publisher": "User ID: 'HADFIELDR' User name: 'Ryan Hadfield' User skill set: 'T3'",
      "lastReviewDate": "2021-04-06",
      "contact": [ {
        "telecom": [ {
          "value": "07777 888888"
        } ]
      } ],
      "subjectType": [ "Patient" ],
      "item": [ {
        "linkId": "59263",
        "prefix": "5",
        "text": "What is the reason for the contact?",
        "type": "choice",
        "required": true,
        "repeats": false,
        "option": [ {
          "valueString": "an injury or other health problem, Selected: true"
        }, {
          "valueString": "labour or childbirth, Selected: false"
        }, {
          "valueString": "a need to access another healthcare service, Selected: false"
        }, {
          "valueString": "a healthcare professional requesting contact with another clinician, Selected: false"
        }, {
          "valueString": "a report of results or tests, Selected: false"
        }, {
          "valueString": "a possible failure of contraception, Selected: false"
        }, {
          "valueString": "more, Selected: false"
        } ]
      } ]
    }
  }, {
    "fullUrl": "urn:uuid:5f2dacf9-ecb9-4736-b462-a36e9ffd2290",
    "resource": {
      "resourceType": "QuestionnaireResponse",
      "id": "5f2dacf9-ecb9-4736-b462-a36e9ffd2290",
      "identifier": {
        "value": "59263"
      },
      "questionnaire": {
        "reference": "urn:uuid:442fcbd6-cbe8-487f-afe4-46f3659bfc11"
      },
      "status": "completed",
      "subject": {
        "reference": "urn:uuid:b9cefb71-4090-4b6f-8d8b-07d90793ecbd"
      },
      "context": {
        "reference": "urn:uuid:6c961885-4c09-47d8-be16-2e7ee04aff3b"
      },
      "authored": "2021-04-06T11:29:26+00:00",
      "item": [ {
        "linkId": "Tx221807",
        "text": "STRING:to'Immediatethreatstolife(SPA/OOHversion)'-'Majorbloodloss'stem",
        "answer": [ {
          "valueString": "\"present\""
        } ]
      } ]
    }
  }, {
    "fullUrl": "urn:uuid:442fcbd6-cbe8-487f-afe4-46f3659bfc11",
    "resource": {
      "resourceType": "Questionnaire",
      "id": "442fcbd6-cbe8-487f-afe4-46f3659bfc11",
      "identifier": [ {
        "value": "59263"
      } ],
      "version": "2021-04-06T11:29:26.887Z",
      "status": "active",
      "experimental": false,
      "date": "2021-04-06T11:29:26+00:00",
      "publisher": "User ID: 'HADFIELDR' User name: 'Ryan Hadfield' User skill set: 'T3'",
      "lastReviewDate": "2021-04-06",
      "contact": [ {
        "telecom": [ {
          "value": "07777 888888"
        } ]
      } ],
      "subjectType": [ "Patient" ],
      "item": [ {
        "linkId": "59263",
        "prefix": "200",
        "text": "STRING:to'Immediatethreatstolife(SPA/OOHversion)'-'Majorbloodloss'stem",
        "type": "choice",
        "required": true,
        "repeats": false,
        "option": [ {
          "valueString": "\"present\", Selected: true"
        } ]
      } ]
    }
  }, {
    "fullUrl": "urn:uuid:9ab734b2-0f81-4147-8b23-b061ac6da8cc",
    "resource": {
      "resourceType": "QuestionnaireResponse",
      "id": "9ab734b2-0f81-4147-8b23-b061ac6da8cc",
      "identifier": {
        "value": "59263"
      },
      "questionnaire": {
        "reference": "urn:uuid:91b624f4-d142-400e-8a6a-83184dc086df"
      },
      "status": "completed",
      "subject": {
        "reference": "urn:uuid:b9cefb71-4090-4b6f-8d8b-07d90793ecbd"
      },
      "context": {
        "reference": "urn:uuid:6c961885-4c09-47d8-be16-2e7ee04aff3b"
      },
      "authored": "2021-04-06T11:29:26+00:00"
    }
  }, {
    "fullUrl": "urn:uuid:91b624f4-d142-400e-8a6a-83184dc086df",
    "resource": {
      "resourceType": "Questionnaire",
      "id": "91b624f4-d142-400e-8a6a-83184dc086df",
      "identifier": [ {
        "value": "59263"
      } ],
      "version": "2021-04-06T11:29:26.887Z",
      "status": "active",
      "experimental": false,
      "date": "2021-04-06T11:29:26+00:00",
      "publisher": "User ID: 'HADFIELDR' User name: 'Ryan Hadfield' User skill set: 'T3'",
      "lastReviewDate": "2021-04-06",
      "contact": [ {
        "telecom": [ {
          "value": "07777 888888"
        } ]
      } ],
      "subjectType": [ "Patient" ]
    }
  }, {
    "fullUrl": "urn:uuid:002e84cb-5a78-4047-9377-e6c414a00ac4",
    "resource": {
      "resourceType": "QuestionnaireResponse",
      "id": "002e84cb-5a78-4047-9377-e6c414a00ac4",
      "identifier": {
        "value": "59263"
      },
      "questionnaire": {
        "reference": "urn:uuid:0e0446f7-a6ac-4024-946c-4e21afce354a"
      },
      "status": "completed",
      "subject": {
        "reference": "urn:uuid:b9cefb71-4090-4b6f-8d8b-07d90793ecbd"
      },
      "context": {
        "reference": "urn:uuid:6c961885-4c09-47d8-be16-2e7ee04aff3b"
      },
      "authored": "2021-04-06T11:29:26+00:00",
      "item": [ {
        "linkId": "Tx221799",
        "text": "STRING:injury,illnessorlabourestablishedinEntryFlow",
        "answer": [ {
          "valueString": "\"present\""
        } ]
      } ]
    }
  }, {
    "fullUrl": "urn:uuid:0e0446f7-a6ac-4024-946c-4e21afce354a",
    "resource": {
      "resourceType": "Questionnaire",
      "id": "0e0446f7-a6ac-4024-946c-4e21afce354a",
      "identifier": [ {
        "value": "59263"
      } ],
      "version": "2021-04-06T11:29:26.887Z",
      "status": "active",
      "experimental": false,
      "date": "2021-04-06T11:29:26+00:00",
      "publisher": "User ID: 'HADFIELDR' User name: 'Ryan Hadfield' User skill set: 'T3'",
      "lastReviewDate": "2021-04-06",
      "contact": [ {
        "telecom": [ {
          "value": "07777 888888"
        } ]
      } ],
      "subjectType": [ "Patient" ],
      "item": [ {
        "linkId": "59263",
        "prefix": "0",
        "text": "STRING:injury,illnessorlabourestablishedinEntryFlow",
        "type": "choice",
        "required": true,
        "repeats": false,
        "option": [ {
          "valueString": "\"present\", Selected: true"
        } ]
      } ]
    }
  }, {
    "fullUrl": "urn:uuid:24c8d494-cd03-4a7b-be1d-f05e569480c0",
    "resource": {
      "resourceType": "QuestionnaireResponse",
      "id": "24c8d494-cd03-4a7b-be1d-f05e569480c0",
      "identifier": {
        "value": "59263"
      },
      "questionnaire": {
        "reference": "urn:uuid:400ff304-0aa5-4f2f-bc93-4506a67f07e8"
      },
      "status": "completed",
      "subject": {
        "reference": "urn:uuid:b9cefb71-4090-4b6f-8d8b-07d90793ecbd"
      },
      "context": {
        "reference": "urn:uuid:6c961885-4c09-47d8-be16-2e7ee04aff3b"
      },
      "authored": "2021-04-06T11:29:26+00:00",
      "item": [ {
        "linkId": "Tx224120",
        "text": "Have you been bleeding RED BLOOD very heavily IN THE LAST 2 HOURS?",
        "answer": [ {
          "valueString": "no"
        } ]
      } ]
    }
  }, {
    "fullUrl": "urn:uuid:400ff304-0aa5-4f2f-bc93-4506a67f07e8",
    "resource": {
      "resourceType": "Questionnaire",
      "id": "400ff304-0aa5-4f2f-bc93-4506a67f07e8",
      "identifier": [ {
        "value": "59263"
      } ],
      "version": "2021-04-06T11:29:26.887Z",
      "status": "active",
      "experimental": false,
      "date": "2021-04-06T11:29:26+00:00",
      "publisher": "User ID: 'HADFIELDR' User name: 'Ryan Hadfield' User skill set: 'T3'",
      "lastReviewDate": "2021-04-06",
      "contact": [ {
        "telecom": [ {
          "value": "07777 888888"
        } ]
      } ],
      "subjectType": [ "Patient" ],
      "item": [ {
        "linkId": "59263",
        "prefix": "10100",
        "text": "Have you been bleeding RED BLOOD very heavily IN THE LAST 2 HOURS?",
        "type": "choice",
        "required": true,
        "repeats": false,
        "option": [ {
          "valueString": "yes, Selected: false"
        }, {
          "valueString": "not sure, Selected: false"
        }, {
          "valueString": "no, Selected: true"
        } ]
      } ]
    }
  }, {
    "fullUrl": "urn:uuid:faa07d72-bd2f-4e11-988e-bdaa3f47a07b",
    "resource": {
      "resourceType": "QuestionnaireResponse",
      "id": "faa07d72-bd2f-4e11-988e-bdaa3f47a07b",
      "identifier": {
        "value": "59263"
      },
      "questionnaire": {
        "reference": "urn:uuid:8f0b2f81-42a5-47cc-9122-734b8e88d22e"
      },
      "status": "completed",
      "subject": {
        "reference": "urn:uuid:b9cefb71-4090-4b6f-8d8b-07d90793ecbd"
      },
      "context": {
        "reference": "urn:uuid:6c961885-4c09-47d8-be16-2e7ee04aff3b"
      },
      "authored": "2021-04-06T11:29:26+00:00",
      "item": [ {
        "linkId": "Tx221343",
        "text": "SocialConcernsExcluded",
        "answer": [ {
          "valueString": "*"
        } ]
      } ]
    }
  }, {
    "fullUrl": "urn:uuid:8f0b2f81-42a5-47cc-9122-734b8e88d22e",
    "resource": {
      "resourceType": "Questionnaire",
      "id": "8f0b2f81-42a5-47cc-9122-734b8e88d22e",
      "identifier": [ {
        "value": "59263"
      } ],
      "version": "2021-04-06T11:29:26.887Z",
      "status": "active",
      "experimental": false,
      "date": "2021-04-06T11:29:26+00:00",
      "publisher": "User ID: 'HADFIELDR' User name: 'Ryan Hadfield' User skill set: 'T3'",
      "lastReviewDate": "2021-04-06",
      "contact": [ {
        "telecom": [ {
          "value": "07777 888888"
        } ]
      } ],
      "subjectType": [ "Patient" ],
      "item": [ {
        "linkId": "59263",
        "prefix": "1100",
        "text": "SocialConcernsExcluded",
        "type": "choice",
        "required": true,
        "repeats": false,
        "option": [ {
          "valueString": "==\"present\", Selected: false"
        }, {
          "valueString": "*, Selected: true"
        } ]
      } ]
    }
  }, {
    "fullUrl": "urn:uuid:79e0532f-7bb8-4d84-89a6-54addb14ea5d",
    "resource": {
      "resourceType": "QuestionnaireResponse",
      "id": "79e0532f-7bb8-4d84-89a6-54addb14ea5d",
      "identifier": {
        "value": "59263"
      },
      "questionnaire": {
        "reference": "urn:uuid:d2295d49-adc8-4467-a82f-25766a372b23"
      },
      "status": "completed",
      "subject": {
        "reference": "urn:uuid:b9cefb71-4090-4b6f-8d8b-07d90793ecbd"
      },
      "context": {
        "reference": "urn:uuid:6c961885-4c09-47d8-be16-2e7ee04aff3b"
      },
      "authored": "2021-04-06T11:29:26+00:00",
      "item": [ {
        "linkId": "Tx130011",
        "text": "What is the main problem?"
      } ]
    }
  }, {
    "fullUrl": "urn:uuid:d2295d49-adc8-4467-a82f-25766a372b23",
    "resource": {
      "resourceType": "Questionnaire",
      "id": "d2295d49-adc8-4467-a82f-25766a372b23",
      "identifier": [ {
        "value": "59263"
      } ],
      "version": "2021-04-06T11:29:26.887Z",
      "status": "active",
      "experimental": false,
      "date": "2021-04-06T11:29:26+00:00",
      "publisher": "User ID: 'HADFIELDR' User name: 'Ryan Hadfield' User skill set: 'T3'",
      "lastReviewDate": "2021-04-06",
      "contact": [ {
        "telecom": [ {
          "value": "07777 888888"
        } ]
      } ],
      "subjectType": [ "Patient" ],
      "item": [ {
        "linkId": "59263",
        "prefix": "2300",
        "text": "What is the main problem?",
        "type": "choice",
        "required": true,
        "repeats": false,
        "option": [ {
          "valueString": "the individual has been told to follow a particular course of action (specify), Selected: false"
        }, {
          "valueString": "the individual is an identified frequent caller, Selected: false"
        }, {
          "valueString": "injury (specify), Selected: false"
        }, {
          "valueString": "illness or other health problem (specify), Selected: false"
        }, {
          "valueString": "child protection/vulnerable adult concern, Selected: false"
        }, {
          "valueString": "social or domestic emergency, Selected: false"
        }, {
          "valueString": "the environment potentially poses an immediate threat to life (specify), Selected: false"
        } ]
      } ]
    }
  }, {
    "fullUrl": "urn:uuid:1343b1b1-11f7-439b-a83d-78e92c4485d1",
    "resource": {
      "resourceType": "QuestionnaireResponse",
      "id": "1343b1b1-11f7-439b-a83d-78e92c4485d1",
      "identifier": {
        "value": "59263"
      },
      "questionnaire": {
        "reference": "urn:uuid:db9d354e-f310-46f4-a7e0-650aaa4b41ac"
      },
      "status": "completed",
      "subject": {
        "reference": "urn:uuid:b9cefb71-4090-4b6f-8d8b-07d90793ecbd"
      },
      "context": {
        "reference": "urn:uuid:6c961885-4c09-47d8-be16-2e7ee04aff3b"
      },
      "authored": "2021-04-06T11:29:26+00:00",
      "item": [ {
        "linkId": "Tx220074",
        "text": "What is the reason for the contact?",
        "answer": [ {
          "valueString": "more"
        } ]
      } ]
    }
  }, {
    "fullUrl": "urn:uuid:db9d354e-f310-46f4-a7e0-650aaa4b41ac",
    "resource": {
      "resourceType": "Questionnaire",
      "id": "db9d354e-f310-46f4-a7e0-650aaa4b41ac",
      "identifier": [ {
        "value": "59263"
      } ],
      "version": "2021-04-06T11:29:26.887Z",
      "status": "active",
      "experimental": false,
      "date": "2021-04-06T11:29:26+00:00",
      "publisher": "User ID: 'HADFIELDR' User name: 'Ryan Hadfield' User skill set: 'T3'",
      "lastReviewDate": "2021-04-06",
      "contact": [ {
        "telecom": [ {
          "value": "07777 888888"
        } ]
      } ],
      "subjectType": [ "Patient" ],
      "item": [ {
        "linkId": "59263",
        "prefix": "5",
        "text": "What is the reason for the contact?",
        "type": "choice",
        "required": true,
        "repeats": false,
        "option": [ {
          "valueString": "an injury or other health problem, Selected: false"
        }, {
          "valueString": "labour or childbirth, Selected: false"
        }, {
          "valueString": "a need to access another healthcare service, Selected: false"
        }, {
          "valueString": "a healthcare professional requesting contact with another clinician, Selected: false"
        }, {
          "valueString": "a report of results or tests, Selected: false"
        }, {
          "valueString": "a possible failure of contraception, Selected: false"
        }, {
          "valueString": "more, Selected: true"
        } ]
      } ]
    }
  }, {
    "fullUrl": "urn:uuid:62034186-4e58-4d2d-af18-5ff4885db029",
    "resource": {
      "resourceType": "QuestionnaireResponse",
      "id": "62034186-4e58-4d2d-af18-5ff4885db029",
      "identifier": {
        "value": "59263"
      },
      "questionnaire": {
        "reference": "urn:uuid:ea96195f-06ea-4e0f-9e1f-7ae3b673b31c"
      },
      "status": "completed",
      "subject": {
        "reference": "urn:uuid:b9cefb71-4090-4b6f-8d8b-07d90793ecbd"
      },
      "context": {
        "reference": "urn:uuid:6c961885-4c09-47d8-be16-2e7ee04aff3b"
      },
      "authored": "2021-04-06T11:29:26+00:00",
      "item": [ {
        "linkId": "Tx221793",
        "text": "STRING:to'Social&information'-further'Callreason'menu",
        "answer": [ {
          "valueString": "\"present\""
        } ]
      } ]
    }
  }, {
    "fullUrl": "urn:uuid:ea96195f-06ea-4e0f-9e1f-7ae3b673b31c",
    "resource": {
      "resourceType": "Questionnaire",
      "id": "ea96195f-06ea-4e0f-9e1f-7ae3b673b31c",
      "identifier": [ {
        "value": "59263"
      } ],
      "version": "2021-04-06T11:29:26.887Z",
      "status": "active",
      "experimental": false,
      "date": "2021-04-06T11:29:26+00:00",
      "publisher": "User ID: 'HADFIELDR' User name: 'Ryan Hadfield' User skill set: 'T3'",
      "lastReviewDate": "2021-04-06",
      "contact": [ {
        "telecom": [ {
          "value": "07777 888888"
        } ]
      } ],
      "subjectType": [ "Patient" ],
      "item": [ {
        "linkId": "59263",
        "prefix": "600",
        "text": "STRING:to'Social&information'-further'Callreason'menu",
        "type": "choice",
        "required": true,
        "repeats": false,
        "option": [ {
          "valueString": "\"present\", Selected: true"
        } ]
      } ]
    }
  }, {
    "fullUrl": "urn:uuid:6c11aa29-11d8-4554-b110-0ecea6ba1125",
    "resource": {
      "resourceType": "QuestionnaireResponse",
      "id": "6c11aa29-11d8-4554-b110-0ecea6ba1125",
      "identifier": {
        "value": "59263"
      },
      "questionnaire": {
        "reference": "urn:uuid:5549fae0-f0de-4878-96e8-ac4c23522920"
      },
      "status": "completed",
      "subject": {
        "reference": "urn:uuid:b9cefb71-4090-4b6f-8d8b-07d90793ecbd"
      },
      "context": {
        "reference": "urn:uuid:6c961885-4c09-47d8-be16-2e7ee04aff3b"
      },
      "authored": "2021-04-06T11:29:26+00:00"
    }
  }, {
    "fullUrl": "urn:uuid:5549fae0-f0de-4878-96e8-ac4c23522920",
    "resource": {
      "resourceType": "Questionnaire",
      "id": "5549fae0-f0de-4878-96e8-ac4c23522920",
      "identifier": [ {
        "value": "59263"
      } ],
      "version": "2021-04-06T11:29:26.887Z",
      "status": "active",
      "experimental": false,
      "date": "2021-04-06T11:29:26+00:00",
      "publisher": "User ID: 'HADFIELDR' User name: 'Ryan Hadfield' User skill set: 'T3'",
      "lastReviewDate": "2021-04-06",
      "contact": [ {
        "telecom": [ {
          "value": "07777 888888"
        } ]
      } ],
      "subjectType": [ "Patient" ]
    }
  }, {
    "fullUrl": "urn:uuid:3d1c707c-091c-449a-9378-4ee04948b0c8",
    "resource": {
      "resourceType": "QuestionnaireResponse",
      "id": "3d1c707c-091c-449a-9378-4ee04948b0c8",
      "identifier": {
        "value": "59263"
      },
      "questionnaire": {
        "reference": "urn:uuid:fdb338e0-15ef-4cf3-bfd4-76e80dfaab74"
      },
      "status": "completed",
      "subject": {
        "reference": "urn:uuid:b9cefb71-4090-4b6f-8d8b-07d90793ecbd"
      },
      "context": {
        "reference": "urn:uuid:6c961885-4c09-47d8-be16-2e7ee04aff3b"
      },
      "authored": "2021-04-06T11:29:26+00:00",
      "item": [ {
        "linkId": "Tx221804",
        "text": "STRING:transfertofurthermenuquestionestablishedinEntryFlow",
        "answer": [ {
          "valueString": "\"present\""
        } ]
      } ]
    }
  }, {
    "fullUrl": "urn:uuid:fdb338e0-15ef-4cf3-bfd4-76e80dfaab74",
    "resource": {
      "resourceType": "Questionnaire",
      "id": "fdb338e0-15ef-4cf3-bfd4-76e80dfaab74",
      "identifier": [ {
        "value": "59263"
      } ],
      "version": "2021-04-06T11:29:26.887Z",
      "status": "active",
      "experimental": false,
      "date": "2021-04-06T11:29:26+00:00",
      "publisher": "User ID: 'HADFIELDR' User name: 'Ryan Hadfield' User skill set: 'T3'",
      "lastReviewDate": "2021-04-06",
      "contact": [ {
        "telecom": [ {
          "value": "07777 888888"
        } ]
      } ],
      "subjectType": [ "Patient" ],
      "item": [ {
        "linkId": "59263",
        "prefix": "41",
        "text": "STRING:transfertofurthermenuquestionestablishedinEntryFlow",
        "type": "choice",
        "required": true,
        "repeats": false,
        "option": [ {
          "valueString": "\"present\", Selected: true"
        } ]
      } ]
    }
  }, {
    "fullUrl": "urn:uuid:2d973440-7437-4e92-9deb-d5aca76437cf",
    "resource": {
      "resourceType": "QuestionnaireResponse",
      "id": "2d973440-7437-4e92-9deb-d5aca76437cf",
      "identifier": {
        "value": "59263"
      },
      "questionnaire": {
        "reference": "urn:uuid:27179454-f53b-4aed-b2a5-b3aa3340b4f1"
      },
      "status": "completed",
      "subject": {
        "reference": "urn:uuid:b9cefb71-4090-4b6f-8d8b-07d90793ecbd"
      },
      "context": {
        "reference": "urn:uuid:6c961885-4c09-47d8-be16-2e7ee04aff3b"
      },
      "authored": "2021-04-06T11:29:26+00:00",
      "item": [ {
        "linkId": "Tx224998",
        "text": "SYSTEM_COVIDLEVEL2",
        "answer": [ {
          "valueString": "==\"covidlevel2\""
        } ]
      } ]
    }
  }, {
    "fullUrl": "urn:uuid:27179454-f53b-4aed-b2a5-b3aa3340b4f1",
    "resource": {
      "resourceType": "Questionnaire",
      "id": "27179454-f53b-4aed-b2a5-b3aa3340b4f1",
      "identifier": [ {
        "value": "59263"
      } ],
      "version": "2021-04-06T11:29:26.887Z",
      "status": "active",
      "experimental": false,
      "date": "2021-04-06T11:29:26+00:00",
      "publisher": "User ID: 'HADFIELDR' User name: 'Ryan Hadfield' User skill set: 'T3'",
      "lastReviewDate": "2021-04-06",
      "contact": [ {
        "telecom": [ {
          "value": "07777 888888"
        } ]
      } ],
      "subjectType": [ "Patient" ],
      "item": [ {
        "linkId": "59263",
        "prefix": "5900",
        "text": "SYSTEM_COVIDLEVEL2",
        "type": "choice",
        "required": true,
        "repeats": false,
        "option": [ {
          "valueString": "==\"covidlevel2\", Selected: true"
        }, {
          "valueString": "*, Selected: false"
        } ]
      } ]
    }
  }, {
    "fullUrl": "urn:uuid:1844b4af-978d-4d87-ac1b-7403e11fb69d",
    "resource": {
      "resourceType": "QuestionnaireResponse",
      "id": "1844b4af-978d-4d87-ac1b-7403e11fb69d",
      "identifier": {
        "value": "59263"
      },
      "questionnaire": {
        "reference": "urn:uuid:5c28dd10-1f03-42c9-9045-59b773772233"
      },
      "status": "completed",
      "subject": {
        "reference": "urn:uuid:b9cefb71-4090-4b6f-8d8b-07d90793ecbd"
      },
      "context": {
        "reference": "urn:uuid:6c961885-4c09-47d8-be16-2e7ee04aff3b"
      },
      "authored": "2021-04-06T11:29:26+00:00",
      "item": [ {
        "linkId": "Tx225069",
        "text": "What is the reason for the contact?",
        "answer": [ {
          "valueString": "a prescription request"
        } ]
      } ]
    }
  }, {
    "fullUrl": "urn:uuid:5c28dd10-1f03-42c9-9045-59b773772233",
    "resource": {
      "resourceType": "Questionnaire",
      "id": "5c28dd10-1f03-42c9-9045-59b773772233",
      "identifier": [ {
        "value": "59263"
      } ],
      "version": "2021-04-06T11:29:26.887Z",
      "status": "active",
      "experimental": false,
      "date": "2021-04-06T11:29:26+00:00",
      "publisher": "User ID: 'HADFIELDR' User name: 'Ryan Hadfield' User skill set: 'T3'",
      "lastReviewDate": "2021-04-06",
      "contact": [ {
        "telecom": [ {
          "value": "07777 888888"
        } ]
      } ],
      "subjectType": [ "Patient" ],
      "item": [ {
        "linkId": "59263",
        "prefix": "6000",
        "text": "What is the reason for the contact?",
        "type": "choice",
        "required": true,
        "repeats": false,
        "option": [ {
          "valueString": "a child protection/vulnerable adult concern (specify), Selected: false"
        }, {
          "valueString": "a social or domestic emergency, Selected: false"
        }, {
          "valueString": "a prescription request, Selected: true"
        }, {
          "valueString": "an appointment request, Selected: false"
        }, {
          "valueString": "a request for health or medication information, Selected: false"
        }, {
          "valueString": "public health alert information, Selected: false"
        } ]
      } ]
    }
  }, {
    "fullUrl": "urn:uuid:27567eef-8f07-41e8-b5b3-c56cebf90543",
    "resource": {
      "resourceType": "QuestionnaireResponse",
      "id": "27567eef-8f07-41e8-b5b3-c56cebf90543",
      "identifier": {
        "value": "59263"
      },
      "questionnaire": {
        "reference": "urn:uuid:64c782fe-1366-4994-942a-126a53b7704d"
      },
      "status": "completed",
      "subject": {
        "reference": "urn:uuid:b9cefb71-4090-4b6f-8d8b-07d90793ecbd"
      },
      "context": {
        "reference": "urn:uuid:6c961885-4c09-47d8-be16-2e7ee04aff3b"
      },
      "authored": "2021-04-06T11:29:26+00:00",
      "item": [ {
        "linkId": "Tx220957",
        "text": "Is this contact about a new or worsening illness?",
        "answer": [ {
          "valueString": "no"
        } ]
      } ]
    }
  }, {
    "fullUrl": "urn:uuid:64c782fe-1366-4994-942a-126a53b7704d",
    "resource": {
      "resourceType": "Questionnaire",
      "id": "64c782fe-1366-4994-942a-126a53b7704d",
      "identifier": [ {
        "value": "59263"
      } ],
      "version": "2021-04-06T11:29:26.887Z",
      "status": "active",
      "experimental": false,
      "date": "2021-04-06T11:29:26+00:00",
      "publisher": "User ID: 'HADFIELDR' User name: 'Ryan Hadfield' User skill set: 'T3'",
      "lastReviewDate": "2021-04-06",
      "contact": [ {
        "telecom": [ {
          "value": "07777 888888"
        } ]
      } ],
      "subjectType": [ "Patient" ],
      "item": [ {
        "linkId": "59263",
        "prefix": "1400",
        "text": "Is this contact about a new or worsening illness?",
        "type": "choice",
        "required": true,
        "repeats": false,
        "option": [ {
          "valueString": "yes, Selected: false"
        }, {
          "valueString": "not sure, Selected: false"
        }, {
          "valueString": "no, Selected: true"
        } ]
      } ]
    }
  }, {
    "fullUrl": "urn:uuid:c83d4dff-e3e4-4da0-b3a9-95a8672a8e7b",
    "resource": {
      "resourceType": "QuestionnaireResponse",
      "id": "c83d4dff-e3e4-4da0-b3a9-95a8672a8e7b",
      "identifier": {
        "value": "59263"
      },
      "questionnaire": {
        "reference": "urn:uuid:db35af0f-f3a7-4579-8de0-2f33ea387628"
      },
      "status": "completed",
      "subject": {
        "reference": "urn:uuid:b9cefb71-4090-4b6f-8d8b-07d90793ecbd"
      },
      "context": {
        "reference": "urn:uuid:6c961885-4c09-47d8-be16-2e7ee04aff3b"
      },
      "authored": "2021-04-06T11:29:26+00:00",
      "item": [ {
        "linkId": "Tx221352",
        "text": "Have you got enough medication to last until the surgery opens?",
        "answer": [ {
          "valueString": "no"
        } ]
      } ]
    }
  }, {
    "fullUrl": "urn:uuid:db35af0f-f3a7-4579-8de0-2f33ea387628",
    "resource": {
      "resourceType": "Questionnaire",
      "id": "db35af0f-f3a7-4579-8de0-2f33ea387628",
      "identifier": [ {
        "value": "59263"
      } ],
      "version": "2021-04-06T11:29:26.887Z",
      "status": "active",
      "experimental": false,
      "date": "2021-04-06T11:29:26+00:00",
      "publisher": "User ID: 'HADFIELDR' User name: 'Ryan Hadfield' User skill set: 'T3'",
      "lastReviewDate": "2021-04-06",
      "contact": [ {
        "telecom": [ {
          "value": "07777 888888"
        } ]
      } ],
      "subjectType": [ "Patient" ],
      "item": [ {
        "linkId": "59263",
        "prefix": "1500",
        "text": "Have you got enough medication to last until the surgery opens?",
        "type": "choice",
        "required": true,
        "repeats": false,
        "option": [ {
          "valueString": "yes, Selected: false"
        }, {
          "valueString": "not sure, Selected: false"
        }, {
          "valueString": "no, Selected: true"
        } ]
      } ]
    }
  }, {
    "fullUrl": "urn:uuid:36ccf885-31a3-4e71-bff8-a4c9ec689860",
    "resource": {
      "resourceType": "QuestionnaireResponse",
      "id": "36ccf885-31a3-4e71-bff8-a4c9ec689860",
      "identifier": {
        "value": "59263"
      },
      "questionnaire": {
        "reference": "urn:uuid:a9a8f21b-7458-4705-8289-0697e9ffceb1"
      },
      "status": "completed",
      "subject": {
        "reference": "urn:uuid:b9cefb71-4090-4b6f-8d8b-07d90793ecbd"
      },
      "context": {
        "reference": "urn:uuid:6c961885-4c09-47d8-be16-2e7ee04aff3b"
      },
      "authored": "2021-04-06T11:29:26+00:00"
    }
  }, {
    "fullUrl": "urn:uuid:a9a8f21b-7458-4705-8289-0697e9ffceb1",
    "resource": {
      "resourceType": "Questionnaire",
      "id": "a9a8f21b-7458-4705-8289-0697e9ffceb1",
      "identifier": [ {
        "value": "59263"
      } ],
      "version": "2021-04-06T11:29:26.887Z",
      "status": "active",
      "experimental": false,
      "date": "2021-04-06T11:29:26+00:00",
      "publisher": "User ID: 'HADFIELDR' User name: 'Ryan Hadfield' User skill set: 'T3'",
      "lastReviewDate": "2021-04-06",
      "contact": [ {
        "telecom": [ {
          "value": "07777 888888"
        } ]
      } ],
      "subjectType": [ "Patient" ]
    }
  }, {
    "fullUrl": "urn:uuid:4e9cf082-d1ed-473a-b3a5-3c5f28d42be2",
    "resource": {
      "resourceType": "QuestionnaireResponse",
      "id": "4e9cf082-d1ed-473a-b3a5-3c5f28d42be2",
      "identifier": {
        "value": "59263"
      },
      "questionnaire": {
        "reference": "urn:uuid:2a7274b0-c52c-4127-9ed3-4416d7dd0c15"
      },
      "status": "completed",
      "subject": {
        "reference": "urn:uuid:b9cefb71-4090-4b6f-8d8b-07d90793ecbd"
      },
      "context": {
        "reference": "urn:uuid:6c961885-4c09-47d8-be16-2e7ee04aff3b"
      },
      "authored": "2021-04-06T11:29:26+00:00",
      "item": [ {
        "linkId": "Tx224231",
        "text": "FROM WHAT YOU HAVE HEARD IS A CONSULTATION WITH A PRESCRIBER NEEDED?",
        "answer": [ {
          "valueString": "no"
        } ]
      } ]
    }
  }, {
    "fullUrl": "urn:uuid:2a7274b0-c52c-4127-9ed3-4416d7dd0c15",
    "resource": {
      "resourceType": "Questionnaire",
      "id": "2a7274b0-c52c-4127-9ed3-4416d7dd0c15",
      "identifier": [ {
        "value": "59263"
      } ],
      "version": "2021-04-06T11:29:26.887Z",
      "status": "active",
      "experimental": false,
      "date": "2021-04-06T11:29:26+00:00",
      "publisher": "User ID: 'HADFIELDR' User name: 'Ryan Hadfield' User skill set: 'T3'",
      "lastReviewDate": "2021-04-06",
      "contact": [ {
        "telecom": [ {
          "value": "07777 888888"
        } ]
      } ],
      "subjectType": [ "Patient" ],
      "item": [ {
        "linkId": "59263",
        "prefix": "0",
        "text": "FROM WHAT YOU HAVE HEARD IS A CONSULTATION WITH A PRESCRIBER NEEDED?",
        "type": "choice",
        "required": true,
        "repeats": false,
        "option": [ {
          "valueString": "yes, Selected: false"
        }, {
          "valueString": "not sure, Selected: false"
        }, {
          "valueString": "no, Selected: true"
        } ]
      } ]
    }
  }, {
    "fullUrl": "urn:uuid:fb4ffa9e-aedb-47eb-a312-2955e96cc53e",
    "resource": {
      "resourceType": "QuestionnaireResponse",
      "id": "fb4ffa9e-aedb-47eb-a312-2955e96cc53e",
      "identifier": {
        "value": "59263"
      },
      "questionnaire": {
        "reference": "urn:uuid:c041bc5e-d605-40fb-af6a-db696882898a"
      },
      "status": "completed",
      "subject": {
        "reference": "urn:uuid:b9cefb71-4090-4b6f-8d8b-07d90793ecbd"
      },
      "context": {
        "reference": "urn:uuid:6c961885-4c09-47d8-be16-2e7ee04aff3b"
      },
      "authored": "2021-04-06T11:29:26+00:00",
      "item": [ {
        "linkId": "Tx222687",
        "text": "Have you got any of the medication available at the moment?",
        "answer": [ {
          "valueString": "no"
        } ]
      } ]
    }
  }, {
    "fullUrl": "urn:uuid:c041bc5e-d605-40fb-af6a-db696882898a",
    "resource": {
      "resourceType": "Questionnaire",
      "id": "c041bc5e-d605-40fb-af6a-db696882898a",
      "identifier": [ {
        "value": "59263"
      } ],
      "version": "2021-04-06T11:29:26.887Z",
      "status": "active",
      "experimental": false,
      "date": "2021-04-06T11:29:26+00:00",
      "publisher": "User ID: 'HADFIELDR' User name: 'Ryan Hadfield' User skill set: 'T3'",
      "lastReviewDate": "2021-04-06",
      "contact": [ {
        "telecom": [ {
          "value": "07777 888888"
        } ]
      } ],
      "subjectType": [ "Patient" ],
      "item": [ {
        "linkId": "59263",
        "prefix": "200",
        "text": "Have you got any of the medication available at the moment?",
        "type": "choice",
        "required": true,
        "repeats": false,
        "option": [ {
          "valueString": "yes, Selected: false"
        }, {
          "valueString": "not sure, Selected: false"
        }, {
          "valueString": "no, Selected: true"
        } ]
      } ]
    }
  }, {
    "fullUrl": "urn:uuid:3935a24d-e226-4745-b32f-1b833fa7266f",
    "resource": {
      "resourceType": "QuestionnaireResponse",
      "id": "3935a24d-e226-4745-b32f-1b833fa7266f",
      "identifier": {
        "value": "59263"
      },
      "questionnaire": {
        "reference": "urn:uuid:ac1fe9f3-ef85-46df-b381-81794995f0f0"
      },
      "status": "completed",
      "subject": {
        "reference": "urn:uuid:b9cefb71-4090-4b6f-8d8b-07d90793ecbd"
      },
      "context": {
        "reference": "urn:uuid:6c961885-4c09-47d8-be16-2e7ee04aff3b"
      },
      "authored": "2021-04-06T11:29:26+00:00",
      "item": [ {
        "linkId": "Tx221367",
        "text": "When is the next dose due?",
        "answer": [ {
          "valueString": "within the next 12 hours"
        } ]
      } ]
    }
  }, {
    "fullUrl": "urn:uuid:ac1fe9f3-ef85-46df-b381-81794995f0f0",
    "resource": {
      "resourceType": "Questionnaire",
      "id": "ac1fe9f3-ef85-46df-b381-81794995f0f0",
      "identifier": [ {
        "value": "59263"
      } ],
      "version": "2021-04-06T11:29:26.887Z",
      "status": "active",
      "experimental": false,
      "date": "2021-04-06T11:29:26+00:00",
      "publisher": "User ID: 'HADFIELDR' User name: 'Ryan Hadfield' User skill set: 'T3'",
      "lastReviewDate": "2021-04-06",
      "contact": [ {
        "telecom": [ {
          "value": "07777 888888"
        } ]
      } ],
      "subjectType": [ "Patient" ],
      "item": [ {
        "linkId": "59263",
        "prefix": "100",
        "text": "When is the next dose due?",
        "type": "choice",
        "required": true,
        "repeats": false,
        "option": [ {
          "valueString": "within the next 2 hours, Selected: false"
        }, {
          "valueString": "within the next 6 hours, Selected: false"
        }, {
          "valueString": "within the next 12 hours, Selected: true"
        }, {
          "valueString": "over 12 hours time, Selected: false"
        }, {
          "valueString": "not sure, Selected: false"
        } ]
      } ]
    }
  }, {
    "fullUrl": "urn:uuid:6e626131-0b45-4def-8daa-1944d443dd23",
    "resource": {
      "resourceType": "QuestionnaireResponse",
      "id": "6e626131-0b45-4def-8daa-1944d443dd23",
      "identifier": {
        "value": "59263"
      },
      "questionnaire": {
        "reference": "urn:uuid:c806eae9-3661-40c7-a1b2-4ce83c4f3cca"
      },
      "status": "completed",
      "subject": {
        "reference": "urn:uuid:b9cefb71-4090-4b6f-8d8b-07d90793ecbd"
      },
      "context": {
        "reference": "urn:uuid:6c961885-4c09-47d8-be16-2e7ee04aff3b"
      },
      "authored": "2021-04-06T11:29:26+00:00",
      "item": [ {
        "linkId": "Tx223441",
        "text": "STRING:SDPCRepeatPrescription",
        "answer": [ {
          "valueString": "\"PC repeat prescription\""
        } ]
      } ]
    }
  }, {
    "fullUrl": "urn:uuid:c806eae9-3661-40c7-a1b2-4ce83c4f3cca",
    "resource": {
      "resourceType": "Questionnaire",
      "id": "c806eae9-3661-40c7-a1b2-4ce83c4f3cca",
      "identifier": [ {
        "value": "59263"
      } ],
      "version": "2021-04-06T11:29:26.887Z",
      "status": "active",
      "experimental": false,
      "date": "2021-04-06T11:29:26+00:00",
      "publisher": "User ID: 'HADFIELDR' User name: 'Ryan Hadfield' User skill set: 'T3'",
      "lastReviewDate": "2021-04-06",
      "contact": [ {
        "telecom": [ {
          "value": "07777 888888"
        } ]
      } ],
      "subjectType": [ "Patient" ],
      "item": [ {
        "linkId": "59263",
        "prefix": "1200",
        "text": "STRING:SDPCRepeatPrescription",
        "type": "choice",
        "required": true,
        "repeats": false,
        "option": [ {
          "valueString": "\"PC repeat prescription\", Selected: true"
        } ]
      } ]
    }
  }, {
    "fullUrl": "urn:uuid:0d058739-b553-48b4-8e9d-d478029fef9f",
    "resource": {
      "resourceType": "QuestionnaireResponse",
      "id": "0d058739-b553-48b4-8e9d-d478029fef9f",
      "identifier": {
        "value": "59263"
      },
      "questionnaire": {
        "reference": "urn:uuid:573d6953-a07c-443c-a0dc-276898586996"
      },
      "status": "completed",
      "subject": {
        "reference": "urn:uuid:b9cefb71-4090-4b6f-8d8b-07d90793ecbd"
      },
      "context": {
        "reference": "urn:uuid:6c961885-4c09-47d8-be16-2e7ee04aff3b"
      },
      "authored": "2021-04-06T11:29:26+00:00"
    }
  }, {
    "fullUrl": "urn:uuid:573d6953-a07c-443c-a0dc-276898586996",
    "resource": {
      "resourceType": "Questionnaire",
      "id": "573d6953-a07c-443c-a0dc-276898586996",
      "identifier": [ {
        "value": "59263"
      } ],
      "version": "2021-04-06T11:29:26.887Z",
      "status": "active",
      "experimental": false,
      "date": "2021-04-06T11:29:26+00:00",
      "publisher": "User ID: 'HADFIELDR' User name: 'Ryan Hadfield' User skill set: 'T3'",
      "lastReviewDate": "2021-04-06",
      "contact": [ {
        "telecom": [ {
          "value": "07777 888888"
        } ]
      } ],
      "subjectType": [ "Patient" ]
    }
  }, {
    "fullUrl": "urn:uuid:ff7b91dd-4e7d-4783-87d5-39bf821ae1ff",
    "resource": {
      "resourceType": "QuestionnaireResponse",
      "id": "ff7b91dd-4e7d-4783-87d5-39bf821ae1ff",
      "identifier": {
        "value": "59263"
      },
      "questionnaire": {
        "reference": "urn:uuid:2322bf50-c897-4230-a035-fd33b24db20c"
      },
      "status": "completed",
      "subject": {
        "reference": "urn:uuid:b9cefb71-4090-4b6f-8d8b-07d90793ecbd"
      },
      "context": {
        "reference": "urn:uuid:6c961885-4c09-47d8-be16-2e7ee04aff3b"
      },
      "authored": "2021-04-06T11:29:26+00:00",
      "item": [ {
        "linkId": "Tx220074",
        "text": "What is the reason for the contact?",
        "answer": [ {
          "valueString": "an injury or other health problem"
        } ]
      } ]
    }
  }, {
    "fullUrl": "urn:uuid:2322bf50-c897-4230-a035-fd33b24db20c",
    "resource": {
      "resourceType": "Questionnaire",
      "id": "2322bf50-c897-4230-a035-fd33b24db20c",
      "identifier": [ {
        "value": "59263"
      } ],
      "version": "2021-04-06T11:29:26.887Z",
      "status": "active",
      "experimental": false,
      "date": "2021-04-06T11:29:26+00:00",
      "publisher": "User ID: 'HADFIELDR' User name: 'Ryan Hadfield' User skill set: 'T3'",
      "lastReviewDate": "2021-04-06",
      "contact": [ {
        "telecom": [ {
          "value": "07777 888888"
        } ]
      } ],
      "subjectType": [ "Patient" ],
      "item": [ {
        "linkId": "59263",
        "prefix": "5",
        "text": "What is the reason for the contact?",
        "type": "choice",
        "required": true,
        "repeats": false,
        "option": [ {
          "valueString": "an injury or other health problem, Selected: true"
        }, {
          "valueString": "labour or childbirth, Selected: false"
        }, {
          "valueString": "a need to access another healthcare service, Selected: false"
        }, {
          "valueString": "a healthcare professional requesting contact with another clinician, Selected: false"
        }, {
          "valueString": "a report of results or tests, Selected: false"
        }, {
          "valueString": "a possible failure of contraception, Selected: false"
        }, {
          "valueString": "more, Selected: false"
        } ]
      } ]
    }
  }, {
    "fullUrl": "urn:uuid:05434dde-a540-4207-a51b-3510841bfe18",
    "resource": {
      "resourceType": "QuestionnaireResponse",
      "id": "05434dde-a540-4207-a51b-3510841bfe18",
      "identifier": {
        "value": "59263"
      },
      "questionnaire": {
        "reference": "urn:uuid:c51aaced-193e-403d-8808-345538334894"
      },
      "status": "completed",
      "subject": {
        "reference": "urn:uuid:b9cefb71-4090-4b6f-8d8b-07d90793ecbd"
      },
      "context": {
        "reference": "urn:uuid:6c961885-4c09-47d8-be16-2e7ee04aff3b"
      },
      "authored": "2021-04-06T11:29:26+00:00",
      "item": [ {
        "linkId": "Tx221807",
        "text": "STRING:to'Immediatethreatstolife(SPA/OOHversion)'-'Majorbloodloss'stem",
        "answer": [ {
          "valueString": "\"present\""
        } ]
      } ]
    }
  }, {
    "fullUrl": "urn:uuid:c51aaced-193e-403d-8808-345538334894",
    "resource": {
      "resourceType": "Questionnaire",
      "id": "c51aaced-193e-403d-8808-345538334894",
      "identifier": [ {
        "value": "59263"
      } ],
      "version": "2021-04-06T11:29:26.887Z",
      "status": "active",
      "experimental": false,
      "date": "2021-04-06T11:29:26+00:00",
      "publisher": "User ID: 'HADFIELDR' User name: 'Ryan Hadfield' User skill set: 'T3'",
      "lastReviewDate": "2021-04-06",
      "contact": [ {
        "telecom": [ {
          "value": "07777 888888"
        } ]
      } ],
      "subjectType": [ "Patient" ],
      "item": [ {
        "linkId": "59263",
        "prefix": "200",
        "text": "STRING:to'Immediatethreatstolife(SPA/OOHversion)'-'Majorbloodloss'stem",
        "type": "choice",
        "required": true,
        "repeats": false,
        "option": [ {
          "valueString": "\"present\", Selected: true"
        } ]
      } ]
    }
  }, {
    "fullUrl": "urn:uuid:3bca9093-4e0b-44c8-8fe6-37ad3730889e",
    "resource": {
      "resourceType": "QuestionnaireResponse",
      "id": "3bca9093-4e0b-44c8-8fe6-37ad3730889e",
      "identifier": {
        "value": "59263"
      },
      "questionnaire": {
        "reference": "urn:uuid:25ae45b5-5a82-4e53-b91e-c3586d3e91da"
      },
      "status": "completed",
      "subject": {
        "reference": "urn:uuid:b9cefb71-4090-4b6f-8d8b-07d90793ecbd"
      },
      "context": {
        "reference": "urn:uuid:6c961885-4c09-47d8-be16-2e7ee04aff3b"
      },
      "authored": "2021-04-06T11:29:26+00:00"
    }
  }, {
    "fullUrl": "urn:uuid:25ae45b5-5a82-4e53-b91e-c3586d3e91da",
    "resource": {
      "resourceType": "Questionnaire",
      "id": "25ae45b5-5a82-4e53-b91e-c3586d3e91da",
      "identifier": [ {
        "value": "59263"
      } ],
      "version": "2021-04-06T11:29:26.887Z",
      "status": "active",
      "experimental": false,
      "date": "2021-04-06T11:29:26+00:00",
      "publisher": "User ID: 'HADFIELDR' User name: 'Ryan Hadfield' User skill set: 'T3'",
      "lastReviewDate": "2021-04-06",
      "contact": [ {
        "telecom": [ {
          "value": "07777 888888"
        } ]
      } ],
      "subjectType": [ "Patient" ]
    }
  }, {
    "fullUrl": "urn:uuid:128f9b25-3dad-4651-a046-2b753e31be7f",
    "resource": {
      "resourceType": "QuestionnaireResponse",
      "id": "128f9b25-3dad-4651-a046-2b753e31be7f",
      "identifier": {
        "value": "59263"
      },
      "questionnaire": {
        "reference": "urn:uuid:ccdfcafc-5e6d-48dc-8ef1-cdb6dbcbfb41"
      },
      "status": "completed",
      "subject": {
        "reference": "urn:uuid:b9cefb71-4090-4b6f-8d8b-07d90793ecbd"
      },
      "context": {
        "reference": "urn:uuid:6c961885-4c09-47d8-be16-2e7ee04aff3b"
      },
      "authored": "2021-04-06T11:29:26+00:00",
      "item": [ {
        "linkId": "Tx221799",
        "text": "STRING:injury,illnessorlabourestablishedinEntryFlow",
        "answer": [ {
          "valueString": "\"present\""
        } ]
      } ]
    }
  }, {
    "fullUrl": "urn:uuid:ccdfcafc-5e6d-48dc-8ef1-cdb6dbcbfb41",
    "resource": {
      "resourceType": "Questionnaire",
      "id": "ccdfcafc-5e6d-48dc-8ef1-cdb6dbcbfb41",
      "identifier": [ {
        "value": "59263"
      } ],
      "version": "2021-04-06T11:29:26.887Z",
      "status": "active",
      "experimental": false,
      "date": "2021-04-06T11:29:26+00:00",
      "publisher": "User ID: 'HADFIELDR' User name: 'Ryan Hadfield' User skill set: 'T3'",
      "lastReviewDate": "2021-04-06",
      "contact": [ {
        "telecom": [ {
          "value": "07777 888888"
        } ]
      } ],
      "subjectType": [ "Patient" ],
      "item": [ {
        "linkId": "59263",
        "prefix": "0",
        "text": "STRING:injury,illnessorlabourestablishedinEntryFlow",
        "type": "choice",
        "required": true,
        "repeats": false,
        "option": [ {
          "valueString": "\"present\", Selected: true"
        } ]
      } ]
    }
  }, {
    "fullUrl": "urn:uuid:93c54c65-b86e-4b8b-9521-eb09c9119341",
    "resource": {
      "resourceType": "QuestionnaireResponse",
      "id": "93c54c65-b86e-4b8b-9521-eb09c9119341",
      "identifier": {
        "value": "59263"
      },
      "questionnaire": {
        "reference": "urn:uuid:8c8297ba-918d-4eff-9fd0-b8d7b10d0b86"
      },
      "status": "completed",
      "subject": {
        "reference": "urn:uuid:b9cefb71-4090-4b6f-8d8b-07d90793ecbd"
      },
      "context": {
        "reference": "urn:uuid:6c961885-4c09-47d8-be16-2e7ee04aff3b"
      },
      "authored": "2021-04-06T11:29:26+00:00",
      "item": [ {
        "linkId": "Tx224120",
        "text": "Have you been bleeding RED BLOOD very heavily IN THE LAST 2 HOURS?",
        "answer": [ {
          "valueString": "no"
        } ]
      } ]
    }
  }, {
    "fullUrl": "urn:uuid:8c8297ba-918d-4eff-9fd0-b8d7b10d0b86",
    "resource": {
      "resourceType": "Questionnaire",
      "id": "8c8297ba-918d-4eff-9fd0-b8d7b10d0b86",
      "identifier": [ {
        "value": "59263"
      } ],
      "version": "2021-04-06T11:29:26.887Z",
      "status": "active",
      "experimental": false,
      "date": "2021-04-06T11:29:26+00:00",
      "publisher": "User ID: 'HADFIELDR' User name: 'Ryan Hadfield' User skill set: 'T3'",
      "lastReviewDate": "2021-04-06",
      "contact": [ {
        "telecom": [ {
          "value": "07777 888888"
        } ]
      } ],
      "subjectType": [ "Patient" ],
      "item": [ {
        "linkId": "59263",
        "prefix": "10100",
        "text": "Have you been bleeding RED BLOOD very heavily IN THE LAST 2 HOURS?",
        "type": "choice",
        "required": true,
        "repeats": false,
        "option": [ {
          "valueString": "yes, Selected: false"
        }, {
          "valueString": "not sure, Selected: false"
        }, {
          "valueString": "no, Selected: true"
        } ]
      } ]
    }
  }, {
    "fullUrl": "urn:uuid:819e5de8-29f7-4ff4-9c21-8d7e098aa697",
    "resource": {
      "resourceType": "QuestionnaireResponse",
      "id": "819e5de8-29f7-4ff4-9c21-8d7e098aa697",
      "identifier": {
        "value": "59263"
      },
      "questionnaire": {
        "reference": "urn:uuid:2d4b46c3-4134-4d27-ba99-1590f35969f6"
      },
      "status": "completed",
      "subject": {
        "reference": "urn:uuid:b9cefb71-4090-4b6f-8d8b-07d90793ecbd"
      },
      "context": {
        "reference": "urn:uuid:6c961885-4c09-47d8-be16-2e7ee04aff3b"
      },
      "authored": "2021-04-06T11:29:26+00:00",
      "item": [ {
        "linkId": "Tx221343",
        "text": "SocialConcernsExcluded",
        "answer": [ {
          "valueString": "*"
        } ]
      } ]
    }
  }, {
    "fullUrl": "urn:uuid:2d4b46c3-4134-4d27-ba99-1590f35969f6",
    "resource": {
      "resourceType": "Questionnaire",
      "id": "2d4b46c3-4134-4d27-ba99-1590f35969f6",
      "identifier": [ {
        "value": "59263"
      } ],
      "version": "2021-04-06T11:29:26.887Z",
      "status": "active",
      "experimental": false,
      "date": "2021-04-06T11:29:26+00:00",
      "publisher": "User ID: 'HADFIELDR' User name: 'Ryan Hadfield' User skill set: 'T3'",
      "lastReviewDate": "2021-04-06",
      "contact": [ {
        "telecom": [ {
          "value": "07777 888888"
        } ]
      } ],
      "subjectType": [ "Patient" ],
      "item": [ {
        "linkId": "59263",
        "prefix": "1100",
        "text": "SocialConcernsExcluded",
        "type": "choice",
        "required": true,
        "repeats": false,
        "option": [ {
          "valueString": "==\"present\", Selected: false"
        }, {
          "valueString": "*, Selected: true"
        } ]
      } ]
    }
  }, {
    "fullUrl": "urn:uuid:60160479-36b4-413f-a2a7-06a8182eacb2",
    "resource": {
      "resourceType": "QuestionnaireResponse",
      "id": "60160479-36b4-413f-a2a7-06a8182eacb2",
      "identifier": {
        "value": "59263"
      },
      "questionnaire": {
        "reference": "urn:uuid:ee475135-64e1-4eb3-8217-320f234590fe"
      },
      "status": "completed",
      "subject": {
        "reference": "urn:uuid:b9cefb71-4090-4b6f-8d8b-07d90793ecbd"
      },
      "context": {
        "reference": "urn:uuid:6c961885-4c09-47d8-be16-2e7ee04aff3b"
      },
      "authored": "2021-04-06T11:29:26+00:00",
      "item": [ {
        "linkId": "Tx130011",
        "text": "What is the main problem?"
      } ]
    }
  }, {
    "fullUrl": "urn:uuid:ee475135-64e1-4eb3-8217-320f234590fe",
    "resource": {
      "resourceType": "Questionnaire",
      "id": "ee475135-64e1-4eb3-8217-320f234590fe",
      "identifier": [ {
        "value": "59263"
      } ],
      "version": "2021-04-06T11:29:26.887Z",
      "status": "active",
      "experimental": false,
      "date": "2021-04-06T11:29:26+00:00",
      "publisher": "User ID: 'HADFIELDR' User name: 'Ryan Hadfield' User skill set: 'T3'",
      "lastReviewDate": "2021-04-06",
      "contact": [ {
        "telecom": [ {
          "value": "07777 888888"
        } ]
      } ],
      "subjectType": [ "Patient" ],
      "item": [ {
        "linkId": "59263",
        "prefix": "2300",
        "text": "What is the main problem?",
        "type": "choice",
        "required": true,
        "repeats": false,
        "option": [ {
          "valueString": "the individual has been told to follow a particular course of action (specify), Selected: false"
        }, {
          "valueString": "the individual is an identified frequent caller, Selected: false"
        }, {
          "valueString": "injury (specify), Selected: false"
        }, {
          "valueString": "illness or other health problem (specify), Selected: false"
        }, {
          "valueString": "child protection/vulnerable adult concern, Selected: false"
        }, {
          "valueString": "social or domestic emergency, Selected: false"
        }, {
          "valueString": "the environment potentially poses an immediate threat to life (specify), Selected: false"
        } ]
      } ]
    }
  }, {
    "fullUrl": "urn:uuid:f4e4754f-0bfd-40f5-bd2d-8900d2e58b9f",
    "resource": {
      "resourceType": "QuestionnaireResponse",
      "id": "f4e4754f-0bfd-40f5-bd2d-8900d2e58b9f",
      "identifier": {
        "value": "59263"
      },
      "questionnaire": {
        "reference": "urn:uuid:6f271e2d-6532-4c28-b761-c1a25eeed309"
      },
      "status": "completed",
      "subject": {
        "reference": "urn:uuid:b9cefb71-4090-4b6f-8d8b-07d90793ecbd"
      },
      "context": {
        "reference": "urn:uuid:6c961885-4c09-47d8-be16-2e7ee04aff3b"
      },
      "authored": "2021-04-06T11:29:26+00:00",
      "item": [ {
        "linkId": "Tx220074",
        "text": "What is the reason for the contact?",
        "answer": [ {
          "valueString": "more"
        } ]
      } ]
    }
  }, {
    "fullUrl": "urn:uuid:6f271e2d-6532-4c28-b761-c1a25eeed309",
    "resource": {
      "resourceType": "Questionnaire",
      "id": "6f271e2d-6532-4c28-b761-c1a25eeed309",
      "identifier": [ {
        "value": "59263"
      } ],
      "version": "2021-04-06T11:29:26.887Z",
      "status": "active",
      "experimental": false,
      "date": "2021-04-06T11:29:26+00:00",
      "publisher": "User ID: 'HADFIELDR' User name: 'Ryan Hadfield' User skill set: 'T3'",
      "lastReviewDate": "2021-04-06",
      "contact": [ {
        "telecom": [ {
          "value": "07777 888888"
        } ]
      } ],
      "subjectType": [ "Patient" ],
      "item": [ {
        "linkId": "59263",
        "prefix": "5",
        "text": "What is the reason for the contact?",
        "type": "choice",
        "required": true,
        "repeats": false,
        "option": [ {
          "valueString": "an injury or other health problem, Selected: false"
        }, {
          "valueString": "labour or childbirth, Selected: false"
        }, {
          "valueString": "a need to access another healthcare service, Selected: false"
        }, {
          "valueString": "a healthcare professional requesting contact with another clinician, Selected: false"
        }, {
          "valueString": "a report of results or tests, Selected: false"
        }, {
          "valueString": "a possible failure of contraception, Selected: false"
        }, {
          "valueString": "more, Selected: true"
        } ]
      } ]
    }
  }, {
    "fullUrl": "urn:uuid:7b40c038-b282-4f04-ac0f-498ac92152ca",
    "resource": {
      "resourceType": "QuestionnaireResponse",
      "id": "7b40c038-b282-4f04-ac0f-498ac92152ca",
      "identifier": {
        "value": "59263"
      },
      "questionnaire": {
        "reference": "urn:uuid:f24d698e-497b-4306-bab6-6f2d5e76024d"
      },
      "status": "completed",
      "subject": {
        "reference": "urn:uuid:b9cefb71-4090-4b6f-8d8b-07d90793ecbd"
      },
      "context": {
        "reference": "urn:uuid:6c961885-4c09-47d8-be16-2e7ee04aff3b"
      },
      "authored": "2021-04-06T11:29:26+00:00",
      "item": [ {
        "linkId": "Tx221793",
        "text": "STRING:to'Social&information'-further'Callreason'menu",
        "answer": [ {
          "valueString": "\"present\""
        } ]
      } ]
    }
  }, {
    "fullUrl": "urn:uuid:f24d698e-497b-4306-bab6-6f2d5e76024d",
    "resource": {
      "resourceType": "Questionnaire",
      "id": "f24d698e-497b-4306-bab6-6f2d5e76024d",
      "identifier": [ {
        "value": "59263"
      } ],
      "version": "2021-04-06T11:29:26.887Z",
      "status": "active",
      "experimental": false,
      "date": "2021-04-06T11:29:26+00:00",
      "publisher": "User ID: 'HADFIELDR' User name: 'Ryan Hadfield' User skill set: 'T3'",
      "lastReviewDate": "2021-04-06",
      "contact": [ {
        "telecom": [ {
          "value": "07777 888888"
        } ]
      } ],
      "subjectType": [ "Patient" ],
      "item": [ {
        "linkId": "59263",
        "prefix": "600",
        "text": "STRING:to'Social&information'-further'Callreason'menu",
        "type": "choice",
        "required": true,
        "repeats": false,
        "option": [ {
          "valueString": "\"present\", Selected: true"
        } ]
      } ]
    }
  }, {
    "fullUrl": "urn:uuid:26313f00-e807-470d-a83f-86893affff49",
    "resource": {
      "resourceType": "QuestionnaireResponse",
      "id": "26313f00-e807-470d-a83f-86893affff49",
      "identifier": {
        "value": "59263"
      },
      "questionnaire": {
        "reference": "urn:uuid:0998a9be-5c91-4978-963a-928149c94783"
      },
      "status": "completed",
      "subject": {
        "reference": "urn:uuid:b9cefb71-4090-4b6f-8d8b-07d90793ecbd"
      },
      "context": {
        "reference": "urn:uuid:6c961885-4c09-47d8-be16-2e7ee04aff3b"
      },
      "authored": "2021-04-06T11:29:26+00:00"
    }
  }, {
    "fullUrl": "urn:uuid:0998a9be-5c91-4978-963a-928149c94783",
    "resource": {
      "resourceType": "Questionnaire",
      "id": "0998a9be-5c91-4978-963a-928149c94783",
      "identifier": [ {
        "value": "59263"
      } ],
      "version": "2021-04-06T11:29:26.887Z",
      "status": "active",
      "experimental": false,
      "date": "2021-04-06T11:29:26+00:00",
      "publisher": "User ID: 'HADFIELDR' User name: 'Ryan Hadfield' User skill set: 'T3'",
      "lastReviewDate": "2021-04-06",
      "contact": [ {
        "telecom": [ {
          "value": "07777 888888"
        } ]
      } ],
      "subjectType": [ "Patient" ]
    }
  }, {
    "fullUrl": "urn:uuid:3fd1c1f7-cfe4-4559-a912-5cfc7eb85095",
    "resource": {
      "resourceType": "QuestionnaireResponse",
      "id": "3fd1c1f7-cfe4-4559-a912-5cfc7eb85095",
      "identifier": {
        "value": "59263"
      },
      "questionnaire": {
        "reference": "urn:uuid:fefddd0b-5f84-4e0a-931c-575dd8893923"
      },
      "status": "completed",
      "subject": {
        "reference": "urn:uuid:b9cefb71-4090-4b6f-8d8b-07d90793ecbd"
      },
      "context": {
        "reference": "urn:uuid:6c961885-4c09-47d8-be16-2e7ee04aff3b"
      },
      "authored": "2021-04-06T11:29:26+00:00",
      "item": [ {
        "linkId": "Tx221804",
        "text": "STRING:transfertofurthermenuquestionestablishedinEntryFlow",
        "answer": [ {
          "valueString": "\"present\""
        } ]
      } ]
    }
  }, {
    "fullUrl": "urn:uuid:fefddd0b-5f84-4e0a-931c-575dd8893923",
    "resource": {
      "resourceType": "Questionnaire",
      "id": "fefddd0b-5f84-4e0a-931c-575dd8893923",
      "identifier": [ {
        "value": "59263"
      } ],
      "version": "2021-04-06T11:29:26.887Z",
      "status": "active",
      "experimental": false,
      "date": "2021-04-06T11:29:26+00:00",
      "publisher": "User ID: 'HADFIELDR' User name: 'Ryan Hadfield' User skill set: 'T3'",
      "lastReviewDate": "2021-04-06",
      "contact": [ {
        "telecom": [ {
          "value": "07777 888888"
        } ]
      } ],
      "subjectType": [ "Patient" ],
      "item": [ {
        "linkId": "59263",
        "prefix": "41",
        "text": "STRING:transfertofurthermenuquestionestablishedinEntryFlow",
        "type": "choice",
        "required": true,
        "repeats": false,
        "option": [ {
          "valueString": "\"present\", Selected: true"
        } ]
      } ]
    }
  }, {
    "fullUrl": "urn:uuid:dbe3b80f-d68e-4ad5-bb8f-9c8885708f4f",
    "resource": {
      "resourceType": "QuestionnaireResponse",
      "id": "dbe3b80f-d68e-4ad5-bb8f-9c8885708f4f",
      "identifier": {
        "value": "59263"
      },
      "questionnaire": {
        "reference": "urn:uuid:aa5fdab7-1ea5-4ab1-b28b-77b63aa35a15"
      },
      "status": "completed",
      "subject": {
        "reference": "urn:uuid:b9cefb71-4090-4b6f-8d8b-07d90793ecbd"
      },
      "context": {
        "reference": "urn:uuid:6c961885-4c09-47d8-be16-2e7ee04aff3b"
      },
      "authored": "2021-04-06T11:29:26+00:00",
      "item": [ {
        "linkId": "Tx224998",
        "text": "SYSTEM_COVIDLEVEL2",
        "answer": [ {
          "valueString": "==\"covidlevel2\""
        } ]
      } ]
    }
  }, {
    "fullUrl": "urn:uuid:aa5fdab7-1ea5-4ab1-b28b-77b63aa35a15",
    "resource": {
      "resourceType": "Questionnaire",
      "id": "aa5fdab7-1ea5-4ab1-b28b-77b63aa35a15",
      "identifier": [ {
        "value": "59263"
      } ],
      "version": "2021-04-06T11:29:26.887Z",
      "status": "active",
      "experimental": false,
      "date": "2021-04-06T11:29:26+00:00",
      "publisher": "User ID: 'HADFIELDR' User name: 'Ryan Hadfield' User skill set: 'T3'",
      "lastReviewDate": "2021-04-06",
      "contact": [ {
        "telecom": [ {
          "value": "07777 888888"
        } ]
      } ],
      "subjectType": [ "Patient" ],
      "item": [ {
        "linkId": "59263",
        "prefix": "5900",
        "text": "SYSTEM_COVIDLEVEL2",
        "type": "choice",
        "required": true,
        "repeats": false,
        "option": [ {
          "valueString": "==\"covidlevel2\", Selected: true"
        }, {
          "valueString": "*, Selected: false"
        } ]
      } ]
    }
  }, {
    "fullUrl": "urn:uuid:5e97245c-b0c6-40fd-bed9-82d8f3637c29",
    "resource": {
      "resourceType": "QuestionnaireResponse",
      "id": "5e97245c-b0c6-40fd-bed9-82d8f3637c29",
      "identifier": {
        "value": "59263"
      },
      "questionnaire": {
        "reference": "urn:uuid:412f0080-334d-4134-ab86-3955f72731f9"
      },
      "status": "completed",
      "subject": {
        "reference": "urn:uuid:b9cefb71-4090-4b6f-8d8b-07d90793ecbd"
      },
      "context": {
        "reference": "urn:uuid:6c961885-4c09-47d8-be16-2e7ee04aff3b"
      },
      "authored": "2021-04-06T11:29:26+00:00",
      "item": [ {
        "linkId": "Tx225069",
        "text": "What is the reason for the contact?",
        "answer": [ {
          "valueString": "a prescription request"
        } ]
      } ]
    }
  }, {
    "fullUrl": "urn:uuid:412f0080-334d-4134-ab86-3955f72731f9",
    "resource": {
      "resourceType": "Questionnaire",
      "id": "412f0080-334d-4134-ab86-3955f72731f9",
      "identifier": [ {
        "value": "59263"
      } ],
      "version": "2021-04-06T11:29:26.887Z",
      "status": "active",
      "experimental": false,
      "date": "2021-04-06T11:29:26+00:00",
      "publisher": "User ID: 'HADFIELDR' User name: 'Ryan Hadfield' User skill set: 'T3'",
      "lastReviewDate": "2021-04-06",
      "contact": [ {
        "telecom": [ {
          "value": "07777 888888"
        } ]
      } ],
      "subjectType": [ "Patient" ],
      "item": [ {
        "linkId": "59263",
        "prefix": "6000",
        "text": "What is the reason for the contact?",
        "type": "choice",
        "required": true,
        "repeats": false,
        "option": [ {
          "valueString": "a child protection/vulnerable adult concern (specify), Selected: false"
        }, {
          "valueString": "a social or domestic emergency, Selected: false"
        }, {
          "valueString": "a prescription request, Selected: true"
        }, {
          "valueString": "an appointment request, Selected: false"
        }, {
          "valueString": "a request for health or medication information, Selected: false"
        }, {
          "valueString": "public health alert information, Selected: false"
        } ]
      } ]
    }
  }, {
    "fullUrl": "urn:uuid:32d6c00b-152c-4ba9-b597-2ebec0b2b524",
    "resource": {
      "resourceType": "QuestionnaireResponse",
      "id": "32d6c00b-152c-4ba9-b597-2ebec0b2b524",
      "identifier": {
        "value": "59263"
      },
      "questionnaire": {
        "reference": "urn:uuid:56ac1c89-e702-44dd-a729-98f67339fb6c"
      },
      "status": "completed",
      "subject": {
        "reference": "urn:uuid:b9cefb71-4090-4b6f-8d8b-07d90793ecbd"
      },
      "context": {
        "reference": "urn:uuid:6c961885-4c09-47d8-be16-2e7ee04aff3b"
      },
      "authored": "2021-04-06T11:29:26+00:00",
      "item": [ {
        "linkId": "Tx220957",
        "text": "Is this contact about a new or worsening illness?",
        "answer": [ {
          "valueString": "no"
        } ]
      } ]
    }
  }, {
    "fullUrl": "urn:uuid:56ac1c89-e702-44dd-a729-98f67339fb6c",
    "resource": {
      "resourceType": "Questionnaire",
      "id": "56ac1c89-e702-44dd-a729-98f67339fb6c",
      "identifier": [ {
        "value": "59263"
      } ],
      "version": "2021-04-06T11:29:26.887Z",
      "status": "active",
      "experimental": false,
      "date": "2021-04-06T11:29:26+00:00",
      "publisher": "User ID: 'HADFIELDR' User name: 'Ryan Hadfield' User skill set: 'T3'",
      "lastReviewDate": "2021-04-06",
      "contact": [ {
        "telecom": [ {
          "value": "07777 888888"
        } ]
      } ],
      "subjectType": [ "Patient" ],
      "item": [ {
        "linkId": "59263",
        "prefix": "1400",
        "text": "Is this contact about a new or worsening illness?",
        "type": "choice",
        "required": true,
        "repeats": false,
        "option": [ {
          "valueString": "yes, Selected: false"
        }, {
          "valueString": "not sure, Selected: false"
        }, {
          "valueString": "no, Selected: true"
        } ]
      } ]
    }
  }, {
    "fullUrl": "urn:uuid:32fe1e52-22f9-48d3-9b27-427cfa7a0f20",
    "resource": {
      "resourceType": "QuestionnaireResponse",
      "id": "32fe1e52-22f9-48d3-9b27-427cfa7a0f20",
      "identifier": {
        "value": "59263"
      },
      "questionnaire": {
        "reference": "urn:uuid:9856bae4-b99f-4fe2-aa5d-cec4b3815b52"
      },
      "status": "completed",
      "subject": {
        "reference": "urn:uuid:b9cefb71-4090-4b6f-8d8b-07d90793ecbd"
      },
      "context": {
        "reference": "urn:uuid:6c961885-4c09-47d8-be16-2e7ee04aff3b"
      },
      "authored": "2021-04-06T11:29:26+00:00",
      "item": [ {
        "linkId": "Tx221352",
        "text": "Have you got enough medication to last until the surgery opens?",
        "answer": [ {
          "valueString": "no"
        } ]
      } ]
    }
  }, {
    "fullUrl": "urn:uuid:9856bae4-b99f-4fe2-aa5d-cec4b3815b52",
    "resource": {
      "resourceType": "Questionnaire",
      "id": "9856bae4-b99f-4fe2-aa5d-cec4b3815b52",
      "identifier": [ {
        "value": "59263"
      } ],
      "version": "2021-04-06T11:29:26.887Z",
      "status": "active",
      "experimental": false,
      "date": "2021-04-06T11:29:26+00:00",
      "publisher": "User ID: 'HADFIELDR' User name: 'Ryan Hadfield' User skill set: 'T3'",
      "lastReviewDate": "2021-04-06",
      "contact": [ {
        "telecom": [ {
          "value": "07777 888888"
        } ]
      } ],
      "subjectType": [ "Patient" ],
      "item": [ {
        "linkId": "59263",
        "prefix": "1500",
        "text": "Have you got enough medication to last until the surgery opens?",
        "type": "choice",
        "required": true,
        "repeats": false,
        "option": [ {
          "valueString": "yes, Selected: false"
        }, {
          "valueString": "not sure, Selected: false"
        }, {
          "valueString": "no, Selected: true"
        } ]
      } ]
    }
  }, {
    "fullUrl": "urn:uuid:1c6b2805-7fdf-479f-ad8a-8b48e6e644b6",
    "resource": {
      "resourceType": "QuestionnaireResponse",
      "id": "1c6b2805-7fdf-479f-ad8a-8b48e6e644b6",
      "identifier": {
        "value": "59263"
      },
      "questionnaire": {
        "reference": "urn:uuid:8c9ce4b3-da0d-4a20-960c-70e90e1ce469"
      },
      "status": "completed",
      "subject": {
        "reference": "urn:uuid:b9cefb71-4090-4b6f-8d8b-07d90793ecbd"
      },
      "context": {
        "reference": "urn:uuid:6c961885-4c09-47d8-be16-2e7ee04aff3b"
      },
      "authored": "2021-04-06T11:29:26+00:00"
    }
  }, {
    "fullUrl": "urn:uuid:8c9ce4b3-da0d-4a20-960c-70e90e1ce469",
    "resource": {
      "resourceType": "Questionnaire",
      "id": "8c9ce4b3-da0d-4a20-960c-70e90e1ce469",
      "identifier": [ {
        "value": "59263"
      } ],
      "version": "2021-04-06T11:29:26.887Z",
      "status": "active",
      "experimental": false,
      "date": "2021-04-06T11:29:26+00:00",
      "publisher": "User ID: 'HADFIELDR' User name: 'Ryan Hadfield' User skill set: 'T3'",
      "lastReviewDate": "2021-04-06",
      "contact": [ {
        "telecom": [ {
          "value": "07777 888888"
        } ]
      } ],
      "subjectType": [ "Patient" ]
    }
  }, {
    "fullUrl": "urn:uuid:46e32e45-5db0-4f4a-a775-b81aa6be586a",
    "resource": {
      "resourceType": "QuestionnaireResponse",
      "id": "46e32e45-5db0-4f4a-a775-b81aa6be586a",
      "identifier": {
        "value": "59263"
      },
      "questionnaire": {
        "reference": "urn:uuid:fc919fc5-be9b-46c4-bc4b-71582f543373"
      },
      "status": "completed",
      "subject": {
        "reference": "urn:uuid:b9cefb71-4090-4b6f-8d8b-07d90793ecbd"
      },
      "context": {
        "reference": "urn:uuid:6c961885-4c09-47d8-be16-2e7ee04aff3b"
      },
      "authored": "2021-04-06T11:29:26+00:00",
      "item": [ {
        "linkId": "Tx224231",
        "text": "FROM WHAT YOU HAVE HEARD IS A CONSULTATION WITH A PRESCRIBER NEEDED?",
        "answer": [ {
          "valueString": "no"
        } ]
      } ]
    }
  }, {
    "fullUrl": "urn:uuid:fc919fc5-be9b-46c4-bc4b-71582f543373",
    "resource": {
      "resourceType": "Questionnaire",
      "id": "fc919fc5-be9b-46c4-bc4b-71582f543373",
      "identifier": [ {
        "value": "59263"
      } ],
      "version": "2021-04-06T11:29:26.887Z",
      "status": "active",
      "experimental": false,
      "date": "2021-04-06T11:29:26+00:00",
      "publisher": "User ID: 'HADFIELDR' User name: 'Ryan Hadfield' User skill set: 'T3'",
      "lastReviewDate": "2021-04-06",
      "contact": [ {
        "telecom": [ {
          "value": "07777 888888"
        } ]
      } ],
      "subjectType": [ "Patient" ],
      "item": [ {
        "linkId": "59263",
        "prefix": "0",
        "text": "FROM WHAT YOU HAVE HEARD IS A CONSULTATION WITH A PRESCRIBER NEEDED?",
        "type": "choice",
        "required": true,
        "repeats": false,
        "option": [ {
          "valueString": "yes, Selected: false"
        }, {
          "valueString": "not sure, Selected: false"
        }, {
          "valueString": "no, Selected: true"
        } ]
      } ]
    }
  }, {
    "fullUrl": "urn:uuid:b81669be-5e21-4bf6-983b-ccd1358e73db",
    "resource": {
      "resourceType": "QuestionnaireResponse",
      "id": "b81669be-5e21-4bf6-983b-ccd1358e73db",
      "identifier": {
        "value": "59263"
      },
      "questionnaire": {
        "reference": "urn:uuid:007371e5-9312-45ea-977b-5bc6ac17f8e5"
      },
      "status": "completed",
      "subject": {
        "reference": "urn:uuid:b9cefb71-4090-4b6f-8d8b-07d90793ecbd"
      },
      "context": {
        "reference": "urn:uuid:6c961885-4c09-47d8-be16-2e7ee04aff3b"
      },
      "authored": "2021-04-06T11:29:26+00:00",
      "item": [ {
        "linkId": "Tx222687",
        "text": "Have you got any of the medication available at the moment?",
        "answer": [ {
          "valueString": "no"
        } ]
      } ]
    }
  }, {
    "fullUrl": "urn:uuid:007371e5-9312-45ea-977b-5bc6ac17f8e5",
    "resource": {
      "resourceType": "Questionnaire",
      "id": "007371e5-9312-45ea-977b-5bc6ac17f8e5",
      "identifier": [ {
        "value": "59263"
      } ],
      "version": "2021-04-06T11:29:26.887Z",
      "status": "active",
      "experimental": false,
      "date": "2021-04-06T11:29:26+00:00",
      "publisher": "User ID: 'HADFIELDR' User name: 'Ryan Hadfield' User skill set: 'T3'",
      "lastReviewDate": "2021-04-06",
      "contact": [ {
        "telecom": [ {
          "value": "07777 888888"
        } ]
      } ],
      "subjectType": [ "Patient" ],
      "item": [ {
        "linkId": "59263",
        "prefix": "200",
        "text": "Have you got any of the medication available at the moment?",
        "type": "choice",
        "required": true,
        "repeats": false,
        "option": [ {
          "valueString": "yes, Selected: false"
        }, {
          "valueString": "not sure, Selected: false"
        }, {
          "valueString": "no, Selected: true"
        } ]
      } ]
    }
  }, {
    "fullUrl": "urn:uuid:53436687-618d-46a9-9aa7-6b55c0ea8eb7",
    "resource": {
      "resourceType": "QuestionnaireResponse",
      "id": "53436687-618d-46a9-9aa7-6b55c0ea8eb7",
      "identifier": {
        "value": "59263"
      },
      "questionnaire": {
        "reference": "urn:uuid:d8754e96-bdab-463e-84f2-21fd75894670"
      },
      "status": "completed",
      "subject": {
        "reference": "urn:uuid:b9cefb71-4090-4b6f-8d8b-07d90793ecbd"
      },
      "context": {
        "reference": "urn:uuid:6c961885-4c09-47d8-be16-2e7ee04aff3b"
      },
      "authored": "2021-04-06T11:29:26+00:00",
      "item": [ {
        "linkId": "Tx221367",
        "text": "When is the next dose due?",
        "answer": [ {
          "valueString": "within the next 12 hours"
        } ]
      } ]
    }
  }, {
    "fullUrl": "urn:uuid:d8754e96-bdab-463e-84f2-21fd75894670",
    "resource": {
      "resourceType": "Questionnaire",
      "id": "d8754e96-bdab-463e-84f2-21fd75894670",
      "identifier": [ {
        "value": "59263"
      } ],
      "version": "2021-04-06T11:29:26.887Z",
      "status": "active",
      "experimental": false,
      "date": "2021-04-06T11:29:26+00:00",
      "publisher": "User ID: 'HADFIELDR' User name: 'Ryan Hadfield' User skill set: 'T3'",
      "lastReviewDate": "2021-04-06",
      "contact": [ {
        "telecom": [ {
          "value": "07777 888888"
        } ]
      } ],
      "subjectType": [ "Patient" ],
      "item": [ {
        "linkId": "59263",
        "prefix": "100",
        "text": "When is the next dose due?",
        "type": "choice",
        "required": true,
        "repeats": false,
        "option": [ {
          "valueString": "within the next 2 hours, Selected: false"
        }, {
          "valueString": "within the next 6 hours, Selected: false"
        }, {
          "valueString": "within the next 12 hours, Selected: true"
        }, {
          "valueString": "over 12 hours time, Selected: false"
        }, {
          "valueString": "not sure, Selected: false"
        } ]
      } ]
    }
  }, {
    "fullUrl": "urn:uuid:62c193ed-65af-48f6-ab58-2dac80437c71",
    "resource": {
      "resourceType": "QuestionnaireResponse",
      "id": "62c193ed-65af-48f6-ab58-2dac80437c71",
      "identifier": {
        "value": "59263"
      },
      "questionnaire": {
        "reference": "urn:uuid:ec3a1346-6071-406d-920e-5db9ee4996d7"
      },
      "status": "completed",
      "subject": {
        "reference": "urn:uuid:b9cefb71-4090-4b6f-8d8b-07d90793ecbd"
      },
      "context": {
        "reference": "urn:uuid:6c961885-4c09-47d8-be16-2e7ee04aff3b"
      },
      "authored": "2021-04-06T11:29:26+00:00",
      "item": [ {
        "linkId": "Tx223441",
        "text": "STRING:SDPCRepeatPrescription",
        "answer": [ {
          "valueString": "\"PC repeat prescription\""
        } ]
      } ]
    }
  }, {
    "fullUrl": "urn:uuid:ec3a1346-6071-406d-920e-5db9ee4996d7",
    "resource": {
      "resourceType": "Questionnaire",
      "id": "ec3a1346-6071-406d-920e-5db9ee4996d7",
      "identifier": [ {
        "value": "59263"
      } ],
      "version": "2021-04-06T11:29:26.887Z",
      "status": "active",
      "experimental": false,
      "date": "2021-04-06T11:29:26+00:00",
      "publisher": "User ID: 'HADFIELDR' User name: 'Ryan Hadfield' User skill set: 'T3'",
      "lastReviewDate": "2021-04-06",
      "contact": [ {
        "telecom": [ {
          "value": "07777 888888"
        } ]
      } ],
      "subjectType": [ "Patient" ],
      "item": [ {
        "linkId": "59263",
        "prefix": "1200",
        "text": "STRING:SDPCRepeatPrescription",
        "type": "choice",
        "required": true,
        "repeats": false,
        "option": [ {
          "valueString": "\"PC repeat prescription\", Selected: true"
        } ]
      } ]
    }
  }, {
    "fullUrl": "urn:uuid:504f52e3-7fe2-4bb3-9a7b-1e526b3ae457",
    "resource": {
      "resourceType": "QuestionnaireResponse",
      "id": "504f52e3-7fe2-4bb3-9a7b-1e526b3ae457",
      "identifier": {
        "value": "59263"
      },
      "questionnaire": {
        "reference": "urn:uuid:326b9d8a-e45d-4a1d-bf74-bd3148da2636"
      },
      "status": "completed",
      "subject": {
        "reference": "urn:uuid:b9cefb71-4090-4b6f-8d8b-07d90793ecbd"
      },
      "context": {
        "reference": "urn:uuid:6c961885-4c09-47d8-be16-2e7ee04aff3b"
      },
      "authored": "2021-04-06T11:29:26+00:00"
    }
  }, {
    "fullUrl": "urn:uuid:326b9d8a-e45d-4a1d-bf74-bd3148da2636",
    "resource": {
      "resourceType": "Questionnaire",
      "id": "326b9d8a-e45d-4a1d-bf74-bd3148da2636",
      "identifier": [ {
        "value": "59263"
      } ],
      "version": "2021-04-06T11:29:26.887Z",
      "status": "active",
      "experimental": false,
      "date": "2021-04-06T11:29:26+00:00",
      "publisher": "User ID: 'HADFIELDR' User name: 'Ryan Hadfield' User skill set: 'T3'",
      "lastReviewDate": "2021-04-06",
      "contact": [ {
        "telecom": [ {
          "value": "07777 888888"
        } ]
      } ],
      "subjectType": [ "Patient" ]
    }
  }, {
    "fullUrl": "urn:uuid:2a26c8fd-d0f3-48ad-bc6b-1a461d948220",
    "resource": {
      "resourceType": "QuestionnaireResponse",
      "id": "2a26c8fd-d0f3-48ad-bc6b-1a461d948220",
      "identifier": {
        "value": "59263"
      },
      "questionnaire": {
        "reference": "urn:uuid:a0987672-1368-4ced-a5a9-e438ec7d9901"
      },
      "status": "completed",
      "subject": {
        "reference": "urn:uuid:b9cefb71-4090-4b6f-8d8b-07d90793ecbd"
      },
      "context": {
        "reference": "urn:uuid:6c961885-4c09-47d8-be16-2e7ee04aff3b"
      },
      "authored": "2021-04-06T11:29:26+00:00"
    }
  }, {
    "fullUrl": "urn:uuid:a0987672-1368-4ced-a5a9-e438ec7d9901",
    "resource": {
      "resourceType": "Questionnaire",
      "id": "a0987672-1368-4ced-a5a9-e438ec7d9901",
      "identifier": [ {
        "value": "59263"
      } ],
      "version": "2021-04-06T11:29:26.887Z",
      "status": "active",
      "experimental": false,
      "date": "2021-04-06T11:29:26+00:00",
      "publisher": "User ID: 'HADFIELDR' User name: 'Ryan Hadfield' User skill set: 'T3'",
      "lastReviewDate": "2021-04-06",
      "contact": [ {
        "telecom": [ {
          "value": "07777 888888"
        } ]
      } ],
      "subjectType": [ "Patient" ]
    }
  }, {
    "fullUrl": "urn:uuid:f27e8a04-9c76-4e77-87c8-59c9d64facac",
    "resource": {
      "resourceType": "Observation",
      "id": "f27e8a04-9c76-4e77-87c8-59c9d64facac",
      "status": "final",
      "code": {
        "coding": [ {
          "system": "http://snomed.info/sct",
          "code": "33962009",
          "display": "Presenting complaint"
        } ]
      },
      "subject": {
        "reference": "urn:uuid:b9cefb71-4090-4b6f-8d8b-07d90793ecbd"
      },
      "context": {
        "reference": "urn:uuid:6c961885-4c09-47d8-be16-2e7ee04aff3b"
      },
      "valueString": "test"
    }
  }, {
    "fullUrl": "urn:uuid:d3bfb842-2a91-4ddf-85f4-850df6e27cf0",
    "resource": {
      "resourceType": "PractitionerRole",
      "id": "d3bfb842-2a91-4ddf-85f4-850df6e27cf0",
      "practitioner": {
        "reference": "urn:uuid:5581ce15-91f6-4f7f-8c85-52c8cd8b28f5"
      },
      "organization": {
        "reference": "urn:uuid:ca2af154-83d2-437c-9499-aba1f0102bda"
      },
      "code": [ {
        "coding": [ {
          "system": "2.16.840.1.113883.2.1.3.2.4.17.339",
          "code": "DOCTOR",
          "display": "Doctor"
        } ]
      } ]
    }
  }, {
    "fullUrl": "urn:uuid:ca2af154-83d2-437c-9499-aba1f0102bda",
    "resource": {
      "resourceType": "Organization",
      "id": "ca2af154-83d2-437c-9499-aba1f0102bda",
      "identifier": [ {
        "value": "RYE"
      } ],
      "name": "1.SCAS Administrator (SCAS111)"
    }
  }, {
    "fullUrl": "urn:uuid:0f34e913-20dd-4e9d-945b-2ed7bf8768b8",
    "resource": {
      "resourceType": "PractitionerRole",
      "id": "0f34e913-20dd-4e9d-945b-2ed7bf8768b8",
      "practitioner": {
        "reference": "urn:uuid:5d13c2c5-b707-4542-82c5-06d36a359466"
      },
      "organization": {
        "reference": "urn:uuid:7410359c-fb75-4b21-bf8b-c1637e235d4e"
      },
      "code": [ {
        "coding": [ {
          "system": "2.16.840.1.113883.2.1.3.2.4.17.196",
          "code": "R0010",
          "display": "Medical Director"
        } ]
      } ]
    }
  }, {
    "fullUrl": "urn:uuid:7410359c-fb75-4b21-bf8b-c1637e235d4e",
    "resource": {
      "resourceType": "Organization",
      "id": "7410359c-fb75-4b21-bf8b-c1637e235d4e",
      "identifier": [ {
        "value": "RYE"
      } ],
      "name": "SCAS111"
    }
  }, {
    "fullUrl": "urn:uuid:48ff68c6-a68d-4769-a7d3-60f117e8118b",
    "resource": {
      "resourceType": "RelatedPerson",
      "id": "48ff68c6-a68d-4769-a7d3-60f117e8118b",
      "patient": {
        "reference": "urn:uuid:b9cefb71-4090-4b6f-8d8b-07d90793ecbd"
      },
      "relationship": {
        "coding": [ {
          "system": "http://hl7.org/fhir/v2/0131",
          "code": "C",
          "display": "Emergency Contact"
        } ]
      },
      "telecom": [ {
        "system": "phone",
        "value": "tel:000000000000"
      } ]
    }
  }, {
    "fullUrl": "urn:uuid:9f177e26-3db8-4718-bd56-2dfeea0ea64d",
    "resource": {
      "resourceType": "Device",
      "id": "9f177e26-3db8-4718-bd56-2dfeea0ea64d",
      "model": "111 Adaptor",
      "version": "0.9.0"
    }
  }, {
    "fullUrl": "urn:uuid:55172ba8-8559-4c2c-8a3b-d3f444ac0e0c",
    "resource": {
      "resourceType": "List",
      "id": "55172ba8-8559-4c2c-8a3b-d3f444ac0e0c",
      "status": "current",
      "mode": "working",
      "title": "111 Report List",
      "code": {
        "coding": [ {
          "system": "http://snomed.info/sct",
          "code": "225390008",
          "display": "Triage"
        } ]
      },
      "subject": {
        "reference": "urn:uuid:b9cefb71-4090-4b6f-8d8b-07d90793ecbd"
      },
      "encounter": {
        "reference": "urn:uuid:6c961885-4c09-47d8-be16-2e7ee04aff3b"
      },
      "date": "2021-08-25T03:45:50+00:00",
      "source": {
        "reference": "urn:uuid:9f177e26-3db8-4718-bd56-2dfeea0ea64d"
      },
      "orderedBy": {
        "coding": [ {
          "system": "http://hl7.org/fhir/list-order",
          "code": "event-date",
          "display": "Sorted by Event Date"
        } ]
      },
      "entry": [ {
        "item": {
          "reference": "urn:uuid:38a9141d-6d05-4cc2-be9d-6defbc57108f"
        }
      }, {
        "item": {
          "reference": "urn:uuid:ca2af154-83d2-437c-9499-aba1f0102bda"
        }
      }, {
        "item": {
          "reference": "urn:uuid:48ff68c6-a68d-4769-a7d3-60f117e8118b"
        }
      }, {
        "item": {
          "reference": "urn:uuid:6b58822e-0112-46c8-99cf-7ef815600c1a"
        }
      }, {
        "item": {
          "reference": "urn:uuid:5d13c2c5-b707-4542-82c5-06d36a359466"
        }
      }, {
        "item": {
          "reference": "urn:uuid:5581ce15-91f6-4f7f-8c85-52c8cd8b28f5"
        }
      }, {
        "item": {
          "reference": "urn:uuid:9f2e6321-4be7-40ec-8d8f-e667921aeef3"
        }
      }, {
        "item": {
          "reference": "urn:uuid:f27e8a04-9c76-4e77-87c8-59c9d64facac"
        }
      }, {
        "item": {
          "reference": "urn:uuid:7410359c-fb75-4b21-bf8b-c1637e235d4e"
        }
      }, {
        "item": {
          "reference": "urn:uuid:79072075-08a7-4d91-9fa5-6ec65b2cd99d"
        }
      }, {
        "item": {
          "reference": "urn:uuid:a0987672-1368-4ced-a5a9-e438ec7d9901"
        }
      }, {
        "item": {
          "reference": "urn:uuid:1c6b2805-7fdf-479f-ad8a-8b48e6e644b6"
        }
      }, {
        "item": {
          "reference": "urn:uuid:0c228e9e-4cbb-45bd-934d-9aa2635a89c9"
        }
      }, {
        "item": {
          "reference": "urn:uuid:bd56ac83-5efd-4ef9-b737-22cd6f2c47bc"
        }
      }, {
        "item": {
          "reference": "urn:uuid:916d5a8b-4d57-431b-adf5-d80fbf40240b"
        }
      }, {
        "item": {
          "reference": "urn:uuid:6e626131-0b45-4def-8daa-1944d443dd23"
        }
      }, {
        "item": {
          "reference": "urn:uuid:5e97245c-b0c6-40fd-bed9-82d8f3637c29"
        }
      }, {
        "item": {
          "reference": "urn:uuid:0998a9be-5c91-4978-963a-928149c94783"
        }
      }, {
        "item": {
          "reference": "urn:uuid:64c782fe-1366-4994-942a-126a53b7704d"
        }
      }, {
        "item": {
          "reference": "urn:uuid:8c9ce4b3-da0d-4a20-960c-70e90e1ce469"
        }
      }, {
        "item": {
          "reference": "urn:uuid:27567eef-8f07-41e8-b5b3-c56cebf90543"
        }
      }, {
        "item": {
          "reference": "urn:uuid:db35af0f-f3a7-4579-8de0-2f33ea387628"
        }
      }, {
        "item": {
          "reference": "urn:uuid:6c11aa29-11d8-4554-b110-0ecea6ba1125"
        }
      }, {
        "item": {
          "reference": "urn:uuid:cd3fcb7a-15b7-434a-bc93-8f6f101be493"
        }
      }, {
        "item": {
          "reference": "urn:uuid:377d9326-26fc-4d10-a325-92dc59b0a359"
        }
      }, {
        "item": {
          "reference": "urn:uuid:573d6953-a07c-443c-a0dc-276898586996"
        }
      }, {
        "item": {
          "reference": "urn:uuid:5efff03f-248d-48fa-ab2e-598872a6ef3c"
        }
      }, {
        "item": {
          "reference": "urn:uuid:79e0532f-7bb8-4d84-89a6-54addb14ea5d"
        }
      }, {
        "item": {
          "reference": "urn:uuid:2322bf50-c897-4230-a035-fd33b24db20c"
        }
      }, {
        "item": {
          "reference": "urn:uuid:1343b1b1-11f7-439b-a83d-78e92c4485d1"
        }
      }, {
        "item": {
          "reference": "urn:uuid:412f0080-334d-4134-ab86-3955f72731f9"
        }
      }, {
        "item": {
          "reference": "urn:uuid:91b624f4-d142-400e-8a6a-83184dc086df"
        }
      }, {
        "item": {
          "reference": "urn:uuid:44546759-5dcf-46d8-84bb-b56ed6d6f4d8"
        }
      }, {
        "item": {
          "reference": "urn:uuid:2a7274b0-c52c-4127-9ed3-4416d7dd0c15"
        }
      }, {
        "item": {
          "reference": "urn:uuid:27179454-f53b-4aed-b2a5-b3aa3340b4f1"
        }
      }, {
        "item": {
          "reference": "urn:uuid:326b9d8a-e45d-4a1d-bf74-bd3148da2636"
        }
      }, {
        "item": {
          "reference": "urn:uuid:f24d698e-497b-4306-bab6-6f2d5e76024d"
        }
      }, {
        "item": {
          "reference": "urn:uuid:72a6c039-fe9b-44a9-b830-dd631912eaa3"
        }
      }, {
        "item": {
          "reference": "urn:uuid:fa37b684-61e1-4e37-99e3-1bdae503644b"
        }
      }, {
        "item": {
          "reference": "urn:uuid:442fcbd6-cbe8-487f-afe4-46f3659bfc11"
        }
      }, {
        "item": {
          "reference": "urn:uuid:62034186-4e58-4d2d-af18-5ff4885db029"
        }
      }, {
        "item": {
          "reference": "urn:uuid:007371e5-9312-45ea-977b-5bc6ac17f8e5"
        }
      }, {
        "item": {
          "reference": "urn:uuid:a5728133-e663-4fce-9350-5b7afb51b81d"
        }
      }, {
        "item": {
          "reference": "urn:uuid:0e0446f7-a6ac-4024-946c-4e21afce354a"
        }
      }, {
        "item": {
          "reference": "urn:uuid:fdb338e0-15ef-4cf3-bfd4-76e80dfaab74"
        }
      }, {
        "item": {
          "reference": "urn:uuid:7907b207-9a7a-414f-8c79-587ee626dd8b"
        }
      }, {
        "item": {
          "reference": "urn:uuid:400ff304-0aa5-4f2f-bc93-4506a67f07e8"
        }
      }, {
        "item": {
          "reference": "urn:uuid:a2138608-c5e3-43e4-82f1-1b20edb1ec03"
        }
      }, {
        "item": {
          "reference": "urn:uuid:fc919fc5-be9b-46c4-bc4b-71582f543373"
        }
      }, {
        "item": {
          "reference": "urn:uuid:d2295d49-adc8-4467-a82f-25766a372b23"
        }
      }, {
        "item": {
          "reference": "urn:uuid:46e32e45-5db0-4f4a-a775-b81aa6be586a"
        }
      }, {
        "item": {
          "reference": "urn:uuid:2a26c8fd-d0f3-48ad-bc6b-1a461d948220"
        }
      }, {
        "item": {
          "reference": "urn:uuid:32d6c00b-152c-4ba9-b597-2ebec0b2b524"
        }
      }, {
        "item": {
          "reference": "urn:uuid:d1b4a3ff-2a5a-4224-bdb1-c3d6bedd869f"
        }
      }, {
        "item": {
          "reference": "urn:uuid:aa5fdab7-1ea5-4ab1-b28b-77b63aa35a15"
        }
      }, {
        "item": {
          "reference": "urn:uuid:ff7b91dd-4e7d-4783-87d5-39bf821ae1ff"
        }
      }, {
        "item": {
          "reference": "urn:uuid:9856bae4-b99f-4fe2-aa5d-cec4b3815b52"
        }
      }, {
        "item": {
          "reference": "urn:uuid:53436687-618d-46a9-9aa7-6b55c0ea8eb7"
        }
      }, {
        "item": {
          "reference": "urn:uuid:c99dae40-399a-4d1c-9060-7a6ba01fc9bd"
        }
      }, {
        "item": {
          "reference": "urn:uuid:8f0b2f81-42a5-47cc-9122-734b8e88d22e"
        }
      }, {
        "item": {
          "reference": "urn:uuid:dbe3b80f-d68e-4ad5-bb8f-9c8885708f4f"
        }
      }, {
        "item": {
          "reference": "urn:uuid:4e9cf082-d1ed-473a-b3a5-3c5f28d42be2"
        }
      }, {
        "item": {
          "reference": "urn:uuid:62c193ed-65af-48f6-ab58-2dac80437c71"
        }
      }, {
        "item": {
          "reference": "urn:uuid:3d1c707c-091c-449a-9378-4ee04948b0c8"
        }
      }, {
        "item": {
          "reference": "urn:uuid:56ac1c89-e702-44dd-a729-98f67339fb6c"
        }
      }, {
        "item": {
          "reference": "urn:uuid:c51aaced-193e-403d-8808-345538334894"
        }
      }, {
        "item": {
          "reference": "urn:uuid:74ea2781-81f9-4423-a3e4-61c2ef49511f"
        }
      }, {
        "item": {
          "reference": "urn:uuid:8c8297ba-918d-4eff-9fd0-b8d7b10d0b86"
        }
      }, {
        "item": {
          "reference": "urn:uuid:d8754e96-bdab-463e-84f2-21fd75894670"
        }
      }, {
        "item": {
          "reference": "urn:uuid:5f2dacf9-ecb9-4736-b462-a36e9ffd2290"
        }
      }, {
        "item": {
          "reference": "urn:uuid:136a4045-b954-49fe-bd70-106ead0cc83b"
        }
      }, {
        "item": {
          "reference": "urn:uuid:0ef3b6a2-b6a7-47cf-b4bc-406feb783dab"
        }
      }, {
        "item": {
          "reference": "urn:uuid:ccdfcafc-5e6d-48dc-8ef1-cdb6dbcbfb41"
        }
      }, {
        "item": {
          "reference": "urn:uuid:519db5be-58f5-4863-9b75-8736e14c0e54"
        }
      }, {
        "item": {
          "reference": "urn:uuid:842015fc-f3f5-4b94-ad34-7292d5585376"
        }
      }, {
        "item": {
          "reference": "urn:uuid:32fe1e52-22f9-48d3-9b27-427cfa7a0f20"
        }
      }, {
        "item": {
          "reference": "urn:uuid:8cc0c4cc-d05c-4c5a-9480-373c1801bac6"
        }
      }, {
        "item": {
          "reference": "urn:uuid:128f9b25-3dad-4651-a046-2b753e31be7f"
        }
      }, {
        "item": {
          "reference": "urn:uuid:7b40c038-b282-4f04-ac0f-498ac92152ca"
        }
      }, {
        "item": {
          "reference": "urn:uuid:dbe647cc-11eb-49c5-9406-5cab84c2c0d1"
        }
      }, {
        "item": {
          "reference": "urn:uuid:b81669be-5e21-4bf6-983b-ccd1358e73db"
        }
      }, {
        "item": {
          "reference": "urn:uuid:2d973440-7437-4e92-9deb-d5aca76437cf"
        }
      }, {
        "item": {
          "reference": "urn:uuid:5c28dd10-1f03-42c9-9045-59b773772233"
        }
      }, {
        "item": {
          "reference": "urn:uuid:0d058739-b553-48b4-8e9d-d478029fef9f"
        }
      }, {
        "item": {
          "reference": "urn:uuid:ec3a1346-6071-406d-920e-5db9ee4996d7"
        }
      }, {
        "item": {
          "reference": "urn:uuid:2d4b46c3-4134-4d27-ba99-1590f35969f6"
        }
      }, {
        "item": {
          "reference": "urn:uuid:c0d55c2c-c6c6-4ab9-946d-96d768eb5d15"
        }
      }, {
        "item": {
          "reference": "urn:uuid:f1d34ea1-dad7-4b78-9aa7-61738e29e5f3"
        }
      }, {
        "item": {
          "reference": "urn:uuid:b975df26-d107-414b-8429-ff3bd9446545"
        }
      }, {
        "item": {
          "reference": "urn:uuid:25ae45b5-5a82-4e53-b91e-c3586d3e91da"
        }
      }, {
        "item": {
          "reference": "urn:uuid:24c8d494-cd03-4a7b-be1d-f05e569480c0"
        }
      }, {
        "item": {
          "reference": "urn:uuid:eb28bf95-d750-4171-8c88-8d5ec6dacd69"
        }
      }, {
        "item": {
          "reference": "urn:uuid:3bca9093-4e0b-44c8-8fe6-37ad3730889e"
        }
      }, {
        "item": {
          "reference": "urn:uuid:5549fae0-f0de-4878-96e8-ac4c23522920"
        }
      }, {
        "item": {
          "reference": "urn:uuid:26313f00-e807-470d-a83f-86893affff49"
        }
      }, {
        "item": {
          "reference": "urn:uuid:36ccf885-31a3-4e71-bff8-a4c9ec689860"
        }
      }, {
        "item": {
          "reference": "urn:uuid:1dabf07b-e735-451d-948f-92359f60b9db"
        }
      }, {
        "item": {
          "reference": "urn:uuid:284d452b-721d-4e0d-96b0-4a837dec5fa9"
        }
      }, {
        "item": {
          "reference": "urn:uuid:60160479-36b4-413f-a2a7-06a8182eacb2"
        }
      }, {
        "item": {
          "reference": "urn:uuid:a9a8f21b-7458-4705-8289-0697e9ffceb1"
        }
      }, {
        "item": {
          "reference": "urn:uuid:1844b4af-978d-4d87-ac1b-7403e11fb69d"
        }
      }, {
        "item": {
          "reference": "urn:uuid:8232db78-4620-4577-a138-33044ccfa594"
        }
      }, {
        "item": {
          "reference": "urn:uuid:9ab734b2-0f81-4147-8b23-b061ac6da8cc"
        }
      }, {
        "item": {
          "reference": "urn:uuid:5a678059-3e7d-4b3a-b58a-e8d2b2d9f1a8"
        }
      }, {
        "item": {
          "reference": "urn:uuid:6bc49b4c-683f-49ac-bd95-dca4b95707c8"
        }
      }, {
        "item": {
          "reference": "urn:uuid:4cc639e9-02f3-4a14-8ec4-e2aafa24f9d0"
        }
      }, {
        "item": {
          "reference": "urn:uuid:c041bc5e-d605-40fb-af6a-db696882898a"
        }
      }, {
        "item": {
          "reference": "urn:uuid:3935a24d-e226-4745-b32f-1b833fa7266f"
        }
      }, {
        "item": {
          "reference": "urn:uuid:8f89b1bb-4098-4633-995e-8b9062f03e81"
        }
      }, {
        "item": {
          "reference": "urn:uuid:ee475135-64e1-4eb3-8217-320f234590fe"
        }
      }, {
        "item": {
          "reference": "urn:uuid:fb4ffa9e-aedb-47eb-a312-2955e96cc53e"
        }
      }, {
        "item": {
          "reference": "urn:uuid:504f52e3-7fe2-4bb3-9a7b-1e526b3ae457"
        }
      }, {
        "item": {
          "reference": "urn:uuid:fefddd0b-5f84-4e0a-931c-575dd8893923"
        }
      }, {
        "item": {
          "reference": "urn:uuid:93c54c65-b86e-4b8b-9521-eb09c9119341"
        }
      }, {
        "item": {
          "reference": "urn:uuid:3fd1c1f7-cfe4-4559-a912-5cfc7eb85095"
        }
      }, {
        "item": {
          "reference": "urn:uuid:77309561-56fe-490d-8e44-3354c1cd5fb5"
        }
      }, {
        "item": {
          "reference": "urn:uuid:ac1fe9f3-ef85-46df-b381-81794995f0f0"
        }
      }, {
        "item": {
          "reference": "urn:uuid:6f271e2d-6532-4c28-b761-c1a25eeed309"
        }
      }, {
        "item": {
          "reference": "urn:uuid:825655b3-4612-462c-bbf6-1b171e24c974"
        }
      }, {
        "item": {
          "reference": "urn:uuid:fa40382d-6e59-4d96-8aa6-90a008a0e3d0"
        }
      }, {
        "item": {
          "reference": "urn:uuid:c806eae9-3661-40c7-a1b2-4ce83c4f3cca"
        }
      }, {
        "item": {
          "reference": "urn:uuid:f4e4754f-0bfd-40f5-bd2d-8900d2e58b9f"
        }
      }, {
        "item": {
          "reference": "urn:uuid:01bdbef7-392a-4fef-9605-5122539b7248"
        }
      }, {
        "item": {
          "reference": "urn:uuid:002e84cb-5a78-4047-9377-e6c414a00ac4"
        }
      }, {
        "item": {
          "reference": "urn:uuid:c83d4dff-e3e4-4da0-b3a9-95a8672a8e7b"
        }
      }, {
        "item": {
          "reference": "urn:uuid:55208bc2-d272-4827-b5f2-f717ad1ccb63"
        }
      }, {
        "item": {
          "reference": "urn:uuid:faa07d72-bd2f-4e11-988e-bdaa3f47a07b"
        }
      }, {
        "item": {
          "reference": "urn:uuid:db9d354e-f310-46f4-a7e0-650aaa4b41ac"
        }
      }, {
        "item": {
          "reference": "urn:uuid:05434dde-a540-4207-a51b-3510841bfe18"
        }
      }, {
        "item": {
          "reference": "urn:uuid:28581685-7dd0-4711-aec4-184d4286f0ff"
        }
      }, {
        "item": {
          "reference": "urn:uuid:ea96195f-06ea-4e0f-9e1f-7ae3b673b31c"
        }
      }, {
        "item": {
          "reference": "urn:uuid:819e5de8-29f7-4ff4-9c21-8d7e098aa697"
        }
      }, {
        "item": {
          "reference": "urn:uuid:cb89d13b-3524-4158-8ff8-44acc5c3e6bd"
        }
      } ]
    }
  } ]
}