{
  "resourceType": "Bundle",
  "identifier": {
    "type": {
      "text": "ClinicalDocument VersionNumber"
    },
    "value": "1"
  },
  "type": "message",
  "entry": [ {
    "fullUrl": "urn:uuid:4A4DE551-F585-49BB-A1D3-12DCC764AF52",
    "resource": {
      "resourceType": "MessageHeader",
      "id": "4A4DE551-F585-49BB-A1D3-12DCC764AF52",
      "event": {
        "system": "https://fhir.nhs.uk/STU3/CodeSystem/EventType-1",
        "code": "referral-1",
        "display": "Referral"
      },
      "destination": [ {
        "endpoint": "urn:nhs-uk:addressing:ods:NVE06:DOSServiceID:1335970392"
      } ],
      "timestamp": "2021-05-11T08:58:52.000+00:00",
      "source": {
        "name": "NHS 111 Adaptor",
        "endpoint": "http://localhost:8080/report"
      },
      "reason": {
        "coding": [ {
          "system": "urn:nhs-itk:ns:201005:interaction",
          "code": "urn:nhs-itk:interaction:primaryOutofHourRecipientNHS111CDADocument-v2-0"
        } ]
      }
    }
  }, {
    "fullUrl": "urn:uuid:33301a9e-4f91-43a6-af47-90a4a3431911",
    "resource": {
      "resourceType": "Encounter",
      "id": "33301a9e-4f91-43a6-af47-90a4a3431911",
      "identifier": [ {
        "system": "2.16.840.1.113883.2.1.3.2.4.18.34",
        "value": "D21E3785-658E-4B35-A8B2-2E59906B8983"
      }, {
        "system": "2.16.840.1.113883.2.1.3.2.4.18.35",
        "value": "2100310384"
      } ],
      "status": "finished",
      "type": [ {
        "text": "111 Encounter Referral"
      } ],
      "subject": {
        "reference": "urn:uuid:e3ddd2a8-f6e4-4246-8d68-6e0f6c525e11"
      },
      "participant": [ {
        "type": [ {
          "coding": [ {
            "system": "http://hl7.org/fhir/ValueSet/encounter-participant-type",
            "code": "PPRF",
            "display": "Author"
          } ]
        } ],
        "individual": {
          "reference": "urn:uuid:ea568a28-d1f0-4baa-b952-7377cb44ab86"
        }
      }, {
        "type": [ {
          "text": "Informant"
        } ],
        "individual": {
          "reference": "urn:uuid:408f20eb-4107-4166-863a-75dd0e290eab"
        }
      } ],
      "period": {
        "start": "2021-05-11T08:58:52+00:00"
      },
      "location": [ {
        "location": {
          "reference": "urn:uuid:a07edd15-68dd-4237-8406-02f91fa984e2"
        },
        "status": "active"
      }, {
        "location": {
          "reference": "urn:uuid:ff5a8ba3-a031-4b5b-8ac0-65daeab6279b"
        },
        "status": "completed"
      } ],
      "serviceProvider": {
        "reference": "urn:uuid:b0954f3a-18a7-4f7e-9945-57d932b013be"
      }
    }
  }, {
    "fullUrl": "urn:uuid:b0954f3a-18a7-4f7e-9945-57d932b013be",
    "resource": {
      "resourceType": "Organization",
      "id": "b0954f3a-18a7-4f7e-9945-57d932b013be",
      "active": true,
      "type": [ {
        "text": "CST"
      } ],
      "name": "Norfolk and Wisbech 111"
    }
  }, {
    "fullUrl": "urn:uuid:ea568a28-d1f0-4baa-b952-7377cb44ab86",
    "resource": {
      "resourceType": "Practitioner",
      "id": "ea568a28-d1f0-4baa-b952-7377cb44ab86",
      "active": true,
      "name": [ {
        "text": "Ben Smythson"
      } ]
    }
  }, {
    "fullUrl": "urn:uuid:408f20eb-4107-4166-863a-75dd0e290eab",
    "resource": {
      "resourceType": "RelatedPerson",
      "id": "408f20eb-4107-4166-863a-75dd0e290eab",
      "active": true,
      "patient": {
        "reference": "urn:uuid:e3ddd2a8-f6e4-4246-8d68-6e0f6c525e11"
      },
      "relationship": {
        "coding": [ {
          "system": "2.16.840.1.113883.2.1.3.2.4.16.45",
          "code": "21",
          "display": "Self"
        }, {
          "system": "http://hl7.org/fhir/v2/0131",
          "code": "C",
          "display": "Emergency Contact"
        } ]
      },
      "name": [ {
        "text": "Test Call TEST CALL DX07"
      } ],
      "telecom": [ {
        "system": "phone",
        "value": "tel:01233123123"
      } ],
      "gender": "unknown"
    }
  }, {
    "fullUrl": "urn:uuid:a07edd15-68dd-4237-8406-02f91fa984e2",
    "resource": {
      "resourceType": "Location",
      "id": "a07edd15-68dd-4237-8406-02f91fa984e2",
      "managingOrganization": {
        "reference": "urn:uuid:71e5f413-61ef-42fa-bf00-f731ccf1282b"
      }
    }
  }, {
    "fullUrl": "urn:uuid:71e5f413-61ef-42fa-bf00-f731ccf1282b",
    "resource": {
      "resourceType": "Organization",
      "id": "71e5f413-61ef-42fa-bf00-f731ccf1282b",
      "identifier": [ {
        "value": "Z10000"
      } ],
      "type": [ {
        "text": "GP Practice"
      } ],
      "name": "UNKNOWN"
    }
  }, {
    "fullUrl": "urn:uuid:ff5a8ba3-a031-4b5b-8ac0-65daeab6279b",
    "resource": {
      "resourceType": "Location",
      "id": "ff5a8ba3-a031-4b5b-8ac0-65daeab6279b",
      "address": {
        "type": "physical",
        "line": [ "313 VICTORIA ROAD", "LOWESTOFT" ],
        "postalCode": "NR33 9LS"
      }
    }
  }, {
    "fullUrl": "urn:uuid:e3ddd2a8-f6e4-4246-8d68-6e0f6c525e11",
    "resource": {
      "resourceType": "Patient",
      "id": "e3ddd2a8-f6e4-4246-8d68-6e0f6c525e11",
      "language": "en",
      "active": true,
      "name": [ {
        "use": "official",
        "family": "TEST CALL DX07",
        "given": [ "Test Call" ]
      } ],
      "telecom": [ {
        "system": "phone",
        "value": "tel:01233123123"
      } ],
      "gender": "male",
      "birthDate": "1996-03-25",
      "address": [ {
        "use": "home",
        "line": [ "313 VICTORIA ROAD", "LOWESTOFT" ],
        "postalCode": "NR33 9LS"
      }, {
        "type": "physical",
        "line": [ "313 VICTORIA ROAD", "LOWESTOFT" ],
        "postalCode": "NR33 9LS"
      } ],
      "generalPractitioner": [ {
        "reference": "urn:uuid:248394ea-8521-4c27-8e06-cbb41e1b969d"
      } ]
    }
  }, {
    "fullUrl": "urn:uuid:248394ea-8521-4c27-8e06-cbb41e1b969d",
    "resource": {
      "resourceType": "Organization",
      "id": "248394ea-8521-4c27-8e06-cbb41e1b969d",
      "identifier": [ {
        "value": "Z10000"
      } ],
      "type": [ {
        "text": "GP Practice"
      } ],
      "name": "UNKNOWN"
    }
  }, {
    "fullUrl": "urn:uuid:85349afb-8f9e-4295-bac6-65cbf19bdf47",
    "resource": {
      "resourceType": "HealthcareService",
      "id": "85349afb-8f9e-4295-bac6-65cbf19bdf47",
      "active": true,
      "providedBy": {
        "reference": "urn:uuid:1c6d20cf-1ba8-405b-b9ad-6280a4a4c9c9"
      },
      "location": [ {
        "reference": "urn:uuid:0c0481f5-1b40-4f96-98f0-252adb05ce4d"
      } ],
      "name": "Out of Hours GP Service (Waveney) - Kirkley Mill Health Centre, Lowestoft"
    }
  }, {
    "fullUrl": "urn:uuid:0c0481f5-1b40-4f96-98f0-252adb05ce4d",
    "resource": {
      "resourceType": "Location",
      "id": "0c0481f5-1b40-4f96-98f0-252adb05ce4d",
      "managingOrganization": {
        "reference": "urn:uuid:1c6d20cf-1ba8-405b-b9ad-6280a4a4c9c9"
      }
    }
  }, {
    "fullUrl": "urn:uuid:1c6d20cf-1ba8-405b-b9ad-6280a4a4c9c9",
    "resource": {
      "resourceType": "Organization",
      "id": "1c6d20cf-1ba8-405b-b9ad-6280a4a4c9c9",
      "identifier": [ {
        "value": "NVE06"
      } ],
      "type": [ {
        "coding": [ {
          "code": "PRCP",
          "display": "Out of Hours GP Service (Waveney) - Kirkley Mill Health Centre, Lowestoft"
        } ]
      } ],
      "name": "Out of Hours GP Service (Waveney) - Kirkley Mill Health Centre, Lowestoft"
    }
  }, {
    "fullUrl": "urn:uuid:b3d040de-0e73-4161-976a-19ad7bb6f7b3",
    "resource": {
      "resourceType": "ReferralRequest",
      "id": "b3d040de-0e73-4161-976a-19ad7bb6f7b3",
      "status": "active",
      "intent": "plan",
      "priority": "routine",
      "subject": {
        "reference": "urn:uuid:e3ddd2a8-f6e4-4246-8d68-6e0f6c525e11"
      },
      "context": {
        "reference": "urn:uuid:33301a9e-4f91-43a6-af47-90a4a3431911"
      },
      "occurrencePeriod": {
        "start": "2021-08-25T04:03:36+00:00",
        "end": "2021-08-25T05:03:36+00:00"
      },
      "authoredOn": "2021-05-11T08:58:52+00:00",
      "requester": {
        "agent": {
          "reference": "urn:uuid:c453ea34-4212-4d7e-aa60-38406ce776dc"
        },
        "onBehalfOf": {
          "reference": "urn:uuid:b0954f3a-18a7-4f7e-9945-57d932b013be"
        }
      },
      "recipient": [ {
        "reference": "urn:uuid:67679414-224c-40c3-9521-101ead39b0f1"
      }, {
        "reference": "urn:uuid:85349afb-8f9e-4295-bac6-65cbf19bdf47"
      } ],
      "reasonReference": [ {
        "reference": "urn:uuid:329134de-4a5c-4807-99e7-278eb068f9a8"
      } ],
      "supportingInfo": [ {
        "reference": "urn:uuid:dc3a13a5-b4b0-4a9b-8647-23aab6062cb3"
      } ]
    }
  }, {
    "fullUrl": "urn:uuid:dc3a13a5-b4b0-4a9b-8647-23aab6062cb3",
    "resource": {
      "resourceType": "ProcedureRequest",
      "id": "dc3a13a5-b4b0-4a9b-8647-23aab6062cb3",
      "status": "active",
      "intent": "plan",
      "priority": "routine",
      "doNotPerform": false,
      "code": {
        "coding": [ {
          "system": "2.16.840.1.113883.2.1.3.2.4.17.325",
          "code": "Dx07",
          "display": "To contact a local service within 12 hours"
        } ]
      },
      "subject": {
        "reference": "urn:uuid:e3ddd2a8-f6e4-4246-8d68-6e0f6c525e11"
      },
      "occurrencePeriod": {
        "start": "2021-08-25T04:03:36+00:00",
        "end": "2021-08-25T05:03:36+00:00"
      },
      "reasonReference": [ {
        "reference": "urn:uuid:329134de-4a5c-4807-99e7-278eb068f9a8"
      } ]
    }
  }, {
    "fullUrl": "urn:uuid:67679414-224c-40c3-9521-101ead39b0f1",
    "resource": {
      "resourceType": "Practitioner",
      "id": "67679414-224c-40c3-9521-101ead39b0f1",
      "active": true,
      "telecom": [ {
        "system": "phone",
        "value": "tel:01233505450"
      } ],
      "address": [ {
        "type": "physical",
        "line": [ "Kingston House", "The Long Barrow", "Orbital Park", "Ashford", "Kent" ],
        "postalCode": "TN24 0GP"
      } ]
    }
  }, {
    "fullUrl": "urn:uuid:a21bc3ad-6ebe-46b2-b021-074e14c7adf8",
    "resource": {
      "resourceType": "Composition",
      "id": "a21bc3ad-6ebe-46b2-b021-074e14c7adf8",
      "identifier": {
        "use": "usual",
        "value": "B172BCF7-DD1C-4508-B781-6BE68ABD1F79"
      },
      "status": "final",
      "type": {
        "coding": [ {
          "system": "http://snomed.info/sct",
          "code": "371531000",
          "display": "Report of clinical encounter (record artifact)"
        } ]
      },
      "subject": {
        "reference": "urn:uuid:e3ddd2a8-f6e4-4246-8d68-6e0f6c525e11"
      },
      "encounter": {
        "reference": "urn:uuid:33301a9e-4f91-43a6-af47-90a4a3431911"
      },
      "date": "2021-08-25T04:03:36+00:00",
      "author": [ {
        "reference": "urn:uuid:ea568a28-d1f0-4baa-b952-7377cb44ab86"
      } ],
      "title": "111 Report",
      "confidentiality": "R",
      "section": [ {
        "section": [ {
          "title": "Patient's Reported Condition",
          "text": {
            "status": "generated",
            "div": "<div xmlns=\"http://www.w3.org/1999/xhtml\">&lt;xml-fragment mediaType=&quot;text/x-hl7-text+xml&quot; xmlns:xsd=&quot;http://www.w3.org/2001/XMLSchema&quot; xmlns:xsi=&quot;http://www.w3.org/2001/XMLSchema-instance&quot;&gt;\n\t\t\t\t\t\t\t\t\t\t\t\t\t&lt;urn:content xmlns:urn=&quot;urn:hl7-org:v3&quot;&gt;&amp;lt;CLEO Ref: 2100310384&gt; Test Call for Dx07.\n\t\t\t\t\t\t\t\t\t\t\t\t\t\t&lt;urn:br/&gt;\n\t\t\t\t\t\t\t\t\t\t\t\t\t&lt;/urn:content&gt;\n\t\t\t\t\t\t\t\t\t\t\t\t&lt;/xml-fragment&gt;</div>"
          }
        }, {
          "title": "Pathways Disposition",
          "text": {
            "status": "generated",
            "div": "<div xmlns=\"http://www.w3.org/1999/xhtml\">&lt;xml-fragment mediaType=&quot;text/x-hl7-text+xml&quot; xmlns:xsd=&quot;http://www.w3.org/2001/XMLSchema&quot; xmlns:xsi=&quot;http://www.w3.org/2001/XMLSchema-instance&quot;&gt;\n\t\t\t\t\t\t\t\t\t\t\t\t\t&lt;urn:content xmlns:urn=&quot;urn:hl7-org:v3&quot;&gt;The individual needs to contact a local service within 12 hours. (Dx07)&lt;/urn:content&gt;\n\t\t\t\t\t\t\t\t\t\t\t\t\t&lt;urn:br xmlns:urn=&quot;urn:hl7-org:v3&quot;/&gt;\n\t\t\t\t\t\t\t\t\t\t\t\t\t&lt;urn:br xmlns:urn=&quot;urn:hl7-org:v3&quot;/&gt;\n\t\t\t\t\t\t\t\t\t\t\t\t\t&lt;urn:content xmlns:urn=&quot;urn:hl7-org:v3&quot;&gt;Selected Service: 1335970392, Out of Hours GP Service (Waveney) - Kirkley Mill Health Centre, Lowestoft, 111&lt;/urn:content&gt;\n\t\t\t\t\t\t\t\t\t\t\t\t\t&lt;urn:br xmlns:urn=&quot;urn:hl7-org:v3&quot;/&gt;\n\t\t\t\t\t\t\t\t\t\t\t\t&lt;/xml-fragment&gt;</div>"
          }
        }, {
          "title": "Consultation Summary",
          "text": {
            "status": "generated",
            "div": "<div xmlns=\"http://www.w3.org/1999/xhtml\">&lt;xml-fragment mediaType=&quot;text/x-hl7-text+xml&quot; xmlns:xsd=&quot;http://www.w3.org/2001/XMLSchema&quot; xmlns:xsi=&quot;http://www.w3.org/2001/XMLSchema-instance&quot;&gt;\n\t\t\t\t\t\t\t\t\t\t\t\t\t&lt;urn:content xmlns:urn=&quot;urn:hl7-org:v3&quot;&gt;\n\t\t\t\t\t\t\t\t\t\t\t\t\t\t&lt;urn:content&gt;Excessive thirst in last 4 weeks&lt;/urn:content&gt;\n\t\t\t\t\t\t\t\t\t\t\t\t\t\t&lt;urn:br/&gt;\n\t\t\t\t\t\t\t\t\t\t\t\t\t\t&lt;urn:content&gt;Warm to touch&lt;/urn:content&gt;\n\t\t\t\t\t\t\t\t\t\t\t\t\t\t&lt;urn:br/&gt;\n\t\t\t\t\t\t\t\t\t\t\t\t\t\t&lt;urn:content&gt;Illness - Test&lt;/urn:content&gt;\n\t\t\t\t\t\t\t\t\t\t\t\t\t\t&lt;urn:br/&gt;\n\t\t\t\t\t\t\t\t\t\t\t\t\t&lt;/urn:content&gt;\n\t\t\t\t\t\t\t\t\t\t\t\t&lt;/xml-fragment&gt;</div>"
          }
        }, {
          "title": "Pathways Assessment",
          "text": {
            "status": "generated",
            "div": "<div xmlns=\"http://www.w3.org/1999/xhtml\">&lt;xml-fragment mediaType=&quot;text/x-hl7-text+xml&quot; xmlns:xsd=&quot;http://www.w3.org/2001/XMLSchema&quot; xmlns:xsi=&quot;http://www.w3.org/2001/XMLSchema-instance&quot;&gt;\n\t\t\t\t\t\t\t\t\t\t\t\t\t&lt;urn:content xmlns:urn=&quot;urn:hl7-org:v3&quot;&gt;An injury or health problem was the reason for the contact.&lt;/urn:content&gt;\n\t\t\t\t\t\t\t\t\t\t\t\t\t&lt;urn:br xmlns:urn=&quot;urn:hl7-org:v3&quot;/&gt;\n\t\t\t\t\t\t\t\t\t\t\t\t\t&lt;urn:content xmlns:urn=&quot;urn:hl7-org:v3&quot;&gt;Heavy bleeding had not occurred in the previous 2 hours.&lt;/urn:content&gt;\n\t\t\t\t\t\t\t\t\t\t\t\t\t&lt;urn:br xmlns:urn=&quot;urn:hl7-org:v3&quot;/&gt;\n\t\t\t\t\t\t\t\t\t\t\t\t\t&lt;urn:content xmlns:urn=&quot;urn:hl7-org:v3&quot;&gt;An illness or health problem was the main problem. - Test&lt;/urn:content&gt;\n\t\t\t\t\t\t\t\t\t\t\t\t\t&lt;urn:br xmlns:urn=&quot;urn:hl7-org:v3&quot;/&gt;\n\t\t\t\t\t\t\t\t\t\t\t\t\t&lt;urn:content xmlns:urn=&quot;urn:hl7-org:v3&quot;&gt;The individual was not fighting for breath.&lt;/urn:content&gt;\n\t\t\t\t\t\t\t\t\t\t\t\t\t&lt;urn:br xmlns:urn=&quot;urn:hl7-org:v3&quot;/&gt;\n\t\t\t\t\t\t\t\t\t\t\t\t\t&lt;urn:content xmlns:urn=&quot;urn:hl7-org:v3&quot;&gt;The main reason for the assessment was not an allergic reaction, heart attack, chest/upper back pain, probable stroke, recent fit/seizure or suicide attempt.&lt;/urn:content&gt;\n\t\t\t\t\t\t\t\t\t\t\t\t\t&lt;urn:br xmlns:urn=&quot;urn:hl7-org:v3&quot;/&gt;\n\t\t\t\t\t\t\t\t\t\t\t\t\t&lt;urn:content xmlns:urn=&quot;urn:hl7-org:v3&quot;&gt;The main reason for contact was not new confusion, declared diabetic hypo/hyperglycaemia, or ICD shock.&lt;/urn:content&gt;\n\t\t\t\t\t\t\t\t\t\t\t\t\t&lt;urn:br xmlns:urn=&quot;urn:hl7-org:v3&quot;/&gt;\n\t\t\t\t\t\t\t\t\t\t\t\t\t&lt;urn:content xmlns:urn=&quot;urn:hl7-org:v3&quot;&gt;The skin on the torso felt normal, warm or hot.&lt;/urn:content&gt;\n\t\t\t\t\t\t\t\t\t\t\t\t\t&lt;urn:br xmlns:urn=&quot;urn:hl7-org:v3&quot;/&gt;\n\t\t\t\t\t\t\t\t\t\t\t\t\t&lt;urn:content xmlns:urn=&quot;urn:hl7-org:v3&quot;&gt;There was no vomiting, diarrhoea, rectal bleeding, groin pain or groin swelling.&lt;/urn:content&gt;\n\t\t\t\t\t\t\t\t\t\t\t\t\t&lt;urn:br xmlns:urn=&quot;urn:hl7-org:v3&quot;/&gt;\n\t\t\t\t\t\t\t\t\t\t\t\t\t&lt;urn:content xmlns:urn=&quot;urn:hl7-org:v3&quot;&gt;There was no new genital pain or swelling.&lt;/urn:content&gt;\n\t\t\t\t\t\t\t\t\t\t\t\t\t&lt;urn:br xmlns:urn=&quot;urn:hl7-org:v3&quot;/&gt;\n\t\t\t\t\t\t\t\t\t\t\t\t\t&lt;urn:content xmlns:urn=&quot;urn:hl7-org:v3&quot;&gt;The individual was able to carry out most or all normal activities.&lt;/urn:content&gt;\n\t\t\t\t\t\t\t\t\t\t\t\t\t&lt;urn:br xmlns:urn=&quot;urn:hl7-org:v3&quot;/&gt;\n\t\t\t\t\t\t\t\t\t\t\t\t\t&lt;urn:content xmlns:urn=&quot;urn:hl7-org:v3&quot;&gt;There was no crushing or severe aching chest, upper back or upper abdominal pain, or pain going to the arm, neck, jaw or shoulder.&lt;/urn:content&gt;\n\t\t\t\t\t\t\t\t\t\t\t\t\t&lt;urn:br xmlns:urn=&quot;urn:hl7-org:v3&quot;/&gt;\n\t\t\t\t\t\t\t\t\t\t\t\t\t&lt;urn:content xmlns:urn=&quot;urn:hl7-org:v3&quot;&gt;The individual had not ingested a harmful or toxic substance.&lt;/urn:content&gt;\n\t\t\t\t\t\t\t\t\t\t\t\t\t&lt;urn:br xmlns:urn=&quot;urn:hl7-org:v3&quot;/&gt;\n\t\t\t\t\t\t\t\t\t\t\t\t\t&lt;urn:content xmlns:urn=&quot;urn:hl7-org:v3&quot;&gt;There had been no black and tarry or red/maroon bowel motions.&lt;/urn:content&gt;\n\t\t\t\t\t\t\t\t\t\t\t\t\t&lt;urn:br xmlns:urn=&quot;urn:hl7-org:v3&quot;/&gt;\n\t\t\t\t\t\t\t\t\t\t\t\t\t&lt;urn:content xmlns:urn=&quot;urn:hl7-org:v3&quot;&gt;There was no new or worsening confusion.&lt;/urn:content&gt;\n\t\t\t\t\t\t\t\t\t\t\t\t\t&lt;urn:br xmlns:urn=&quot;urn:hl7-org:v3&quot;/&gt;\n\t\t\t\t\t\t\t\t\t\t\t\t\t&lt;urn:content xmlns:urn=&quot;urn:hl7-org:v3&quot;&gt;Breathing harder or faster when doing nothing was not described.&lt;/urn:content&gt;\n\t\t\t\t\t\t\t\t\t\t\t\t\t&lt;urn:br xmlns:urn=&quot;urn:hl7-org:v3&quot;/&gt;\n\t\t\t\t\t\t\t\t\t\t\t\t\t&lt;urn:content xmlns:urn=&quot;urn:hl7-org:v3&quot;&gt;There was no new shoulder tip pain or pain in the lower right abdomen.&lt;/urn:content&gt;\n\t\t\t\t\t\t\t\t\t\t\t\t\t&lt;urn:br xmlns:urn=&quot;urn:hl7-org:v3&quot;/&gt;\n\t\t\t\t\t\t\t\t\t\t\t\t\t&lt;urn:content xmlns:urn=&quot;urn:hl7-org:v3&quot;&gt;The individual did not use anticoagulant medication or have a bleeding/clotting disorder.&lt;/urn:content&gt;\n\t\t\t\t\t\t\t\t\t\t\t\t\t&lt;urn:br xmlns:urn=&quot;urn:hl7-org:v3&quot;/&gt;\n\t\t\t\t\t\t\t\t\t\t\t\t\t&lt;urn:content xmlns:urn=&quot;urn:hl7-org:v3&quot;&gt;The individual had not been in constant pain for 4 hours or more.&lt;/urn:content&gt;\n\t\t\t\t\t\t\t\t\t\t\t\t\t&lt;urn:br xmlns:urn=&quot;urn:hl7-org:v3&quot;/&gt;\n\t\t\t\t\t\t\t\t\t\t\t\t\t&lt;urn:content xmlns:urn=&quot;urn:hl7-org:v3&quot;&gt;The individual was not jaundiced.&lt;/urn:content&gt;\n\t\t\t\t\t\t\t\t\t\t\t\t\t&lt;urn:br xmlns:urn=&quot;urn:hl7-org:v3&quot;/&gt;\n\t\t\t\t\t\t\t\t\t\t\t\t\t&lt;urn:content xmlns:urn=&quot;urn:hl7-org:v3&quot;&gt;The individual had experienced extreme thirst during the previous 4 weeks.&lt;/urn:content&gt;\n\t\t\t\t\t\t\t\t\t\t\t\t\t&lt;urn:br xmlns:urn=&quot;urn:hl7-org:v3&quot;/&gt;\n\t\t\t\t\t\t\t\t\t\t\t\t&lt;/xml-fragment&gt;</div>"
          }
        }, {
          "title": "Advice Given",
          "text": {
            "status": "generated",
            "div": "<div xmlns=\"http://www.w3.org/1999/xhtml\">&lt;xml-fragment mediaType=&quot;text/x-hl7-text+xml&quot; xmlns:xsd=&quot;http://www.w3.org/2001/XMLSchema&quot; xmlns:xsi=&quot;http://www.w3.org/2001/XMLSchema-instance&quot;&gt;\n\t\t\t\t\t\t\t\t\t\t\t\t\t&lt;urn:content xmlns:urn=&quot;urn:hl7-org:v3&quot;&gt;Unless advised not to, paracetamol may be used to relieve pain or fever. Follow the instructions in the pack. If in doubt ask a pharmacist.&lt;/urn:content&gt;\n\t\t\t\t\t\t\t\t\t\t\t\t\t&lt;urn:br xmlns:urn=&quot;urn:hl7-org:v3&quot;/&gt;\n\t\t\t\t\t\t\t\t\t\t\t\t\t&lt;urn:content xmlns:urn=&quot;urn:hl7-org:v3&quot;&gt;Don't use ibuprofen or any other anti-inflammatory medication until you have spoken to a healthcare professional.&lt;/urn:content&gt;\n\t\t\t\t\t\t\t\t\t\t\t\t\t&lt;urn:br xmlns:urn=&quot;urn:hl7-org:v3&quot;/&gt;\n\t\t\t\t\t\t\t\t\t\t\t\t\t&lt;urn:content xmlns:urn=&quot;urn:hl7-org:v3&quot;&gt;If there are any new symptoms, or if the condition gets worse, changes or you have any other concerns, call us back.&lt;/urn:content&gt;\n\t\t\t\t\t\t\t\t\t\t\t\t\t&lt;urn:br xmlns:urn=&quot;urn:hl7-org:v3&quot;/&gt;\n\t\t\t\t\t\t\t\t\t\t\t\t\t&lt;urn:content xmlns:urn=&quot;urn:hl7-org:v3&quot;&gt;Remember to take a list of any current medications if you go to the out of hours surgery.&lt;/urn:content&gt;\n\t\t\t\t\t\t\t\t\t\t\t\t\t&lt;urn:br xmlns:urn=&quot;urn:hl7-org:v3&quot;/&gt;\n\t\t\t\t\t\t\t\t\t\t\t\t&lt;/xml-fragment&gt;</div>"
          }
        }, {
          "title": "SCR Consent",
          "text": {
            "status": "generated",
            "div": "<div xmlns=\"http://www.w3.org/1999/xhtml\">&lt;xml-fragment mediaType=&quot;text/x-hl7-text+xml&quot; xmlns:xsd=&quot;http://www.w3.org/2001/XMLSchema&quot; xmlns:xsi=&quot;http://www.w3.org/2001/XMLSchema-instance&quot;&gt;\n\t\t\t\t\t\t\t\t\t\t\t\t\t&lt;urn:content xmlns:urn=&quot;urn:hl7-org:v3&quot;&gt;Consent given for SCR sharing\n\t\t\t\t\t\t\t\t\t\t\t\t\t\t&lt;urn:br/&gt;\n\t\t\t\t\t\t\t\t\t\t\t\t\t\t&lt;urn:br/&gt;\n\t\t\t\t\t\t\t\t\t\t\t\t\t&lt;/urn:content&gt;\n\t\t\t\t\t\t\t\t\t\t\t\t&lt;/xml-fragment&gt;</div>"
          }
        } ]
      }, {
        "title": "ReferralRequest",
        "entry": [ {
          "reference": "urn:uuid:b3d040de-0e73-4161-976a-19ad7bb6f7b3"
        } ]
      } ]
    }
  }, {
    "fullUrl": "urn:uuid:34ecc84b-70ad-48e5-b1ca-392891f4dde0",
    "resource": {
      "resourceType": "Consent",
      "id": "34ecc84b-70ad-48e5-b1ca-392891f4dde0",
      "identifier": {
        "use": "usual",
        "value": "B172BCF7-DD1C-4508-B781-6BE68ABD1F79"
      },
      "status": "active",
      "patient": {
        "reference": "urn:uuid:e3ddd2a8-f6e4-4246-8d68-6e0f6c525e11"
      },
      "period": {
        "start": "2021-05-11T08:58:52+00:00"
      },
      "consentingParty": [ {
        "reference": "urn:uuid:e3ddd2a8-f6e4-4246-8d68-6e0f6c525e11"
      } ],
      "action": [ {
        "coding": [ {
          "system": "http://snomed.info/sct",
          "code": "425691002",
          "display": "Consent given for electronic record sharing"
        } ],
        "text": "Consent given for electronic record sharing"
      } ],
      "organization": [ {
        "reference": "urn:uuid:b0954f3a-18a7-4f7e-9945-57d932b013be"
      } ],
      "policyRule": "http://hl7.org/fhir/ConsentPolicy/opt-out",
      "data": [ {
        "meaning": "related",
        "reference": {
          "reference": "urn:uuid:33301a9e-4f91-43a6-af47-90a4a3431911"
        }
      } ]
    }
  }, {
    "fullUrl": "urn:uuid:329134de-4a5c-4807-99e7-278eb068f9a8",
    "resource": {
      "resourceType": "Condition",
      "id": "329134de-4a5c-4807-99e7-278eb068f9a8",
      "clinicalStatus": "active",
      "verificationStatus": "unknown",
      "subject": {
        "reference": "urn:uuid:e3ddd2a8-f6e4-4246-8d68-6e0f6c525e11"
      },
      "context": {
        "reference": "urn:uuid:33301a9e-4f91-43a6-af47-90a4a3431911"
      }
    }
  }, {
    "fullUrl": "urn:uuid:7e361ccf-e3b9-42a7-8586-f8f1e9ce5b3f",
    "resource": {
      "resourceType": "Observation",
      "id": "7e361ccf-e3b9-42a7-8586-f8f1e9ce5b3f",
      "status": "final",
      "code": {
        "coding": [ {
          "system": "http://snomed.info/sct",
          "code": "33962009",
          "display": "Presenting complaint"
        } ]
      },
      "subject": {
        "reference": "urn:uuid:e3ddd2a8-f6e4-4246-8d68-6e0f6c525e11"
      },
      "context": {
        "reference": "urn:uuid:33301a9e-4f91-43a6-af47-90a4a3431911"
      },
      "valueString": "<CLEO Ref: 2100310384> Test Call for Dx07.\n\t\t\t\t\t\t\t\t\t\t\t\t\t\t"
    }
  }, {
    "fullUrl": "urn:uuid:9783be12-a18f-42f5-834f-576cc7a579f9",
    "resource": {
      "resourceType": "PractitionerRole",
      "id": "9783be12-a18f-42f5-834f-576cc7a579f9",
      "practitioner": {
        "reference": "urn:uuid:ea568a28-d1f0-4baa-b952-7377cb44ab86"
      },
      "organization": {
        "reference": "urn:uuid:41306b9f-dcac-474c-811c-981e66f9b319"
      },
      "code": [ {
        "coding": [ {
          "system": "2.16.840.1.113883.2.1.3.2.4.17.196",
          "code": "NR1690",
          "display": "Call Operator"
        } ]
      } ]
    }
  }, {
    "fullUrl": "urn:uuid:41306b9f-dcac-474c-811c-981e66f9b319",
    "resource": {
      "resourceType": "Organization",
      "id": "41306b9f-dcac-474c-811c-981e66f9b319",
      "identifier": [ {
        "value": "NTN08"
      } ],
      "name": "Norfolk and Wisbech 111"
    }
  }, {
    "fullUrl": "urn:uuid:054c157c-b107-480b-be7e-1b3466a25c6c",
    "resource": {
      "resourceType": "RelatedPerson",
      "id": "054c157c-b107-480b-be7e-1b3466a25c6c",
      "patient": {
        "reference": "urn:uuid:e3ddd2a8-f6e4-4246-8d68-6e0f6c525e11"
      },
      "relationship": {
        "coding": [ {
          "system": "http://hl7.org/fhir/v2/0131",
          "code": "C",
          "display": "Emergency Contact"
        } ]
      },
      "telecom": [ {
        "system": "phone",
        "value": "tel:01233123123"
      } ]
    }
  }, {
    "fullUrl": "urn:uuid:c453ea34-4212-4d7e-aa60-38406ce776dc",
    "resource": {
      "resourceType": "Device",
      "id": "c453ea34-4212-4d7e-aa60-38406ce776dc",
      "model": "111 Adaptor",
      "version": "0.9.0"
    }
  }, {
    "fullUrl": "urn:uuid:06bee49b-11c0-49a8-b142-f6ecf3ba135e",
    "resource": {
      "resourceType": "List",
      "id": "06bee49b-11c0-49a8-b142-f6ecf3ba135e",
      "status": "current",
      "mode": "working",
      "title": "111 Report List",
      "code": {
        "coding": [ {
          "system": "http://snomed.info/sct",
          "code": "225390008",
          "display": "Triage"
        } ]
      },
      "subject": {
        "reference": "urn:uuid:e3ddd2a8-f6e4-4246-8d68-6e0f6c525e11"
      },
      "encounter": {
        "reference": "urn:uuid:33301a9e-4f91-43a6-af47-90a4a3431911"
      },
      "date": "2021-08-25T04:03:36+00:00",
      "source": {
        "reference": "urn:uuid:c453ea34-4212-4d7e-aa60-38406ce776dc"
      },
      "orderedBy": {
        "coding": [ {
          "system": "http://hl7.org/fhir/list-order",
          "code": "event-date",
          "display": "Sorted by Event Date"
        } ]
      },
      "entry": [ {
        "item": {
          "reference": "urn:uuid:7e361ccf-e3b9-42a7-8586-f8f1e9ce5b3f"
        }
      }, {
        "item": {
          "reference": "urn:uuid:67679414-224c-40c3-9521-101ead39b0f1"
        }
      }, {
        "item": {
          "reference": "urn:uuid:329134de-4a5c-4807-99e7-278eb068f9a8"
        }
      }, {
        "item": {
          "reference": "urn:uuid:054c157c-b107-480b-be7e-1b3466a25c6c"
        }
      }, {
        "item": {
          "reference": "urn:uuid:71e5f413-61ef-42fa-bf00-f731ccf1282b"
        }
      }, {
        "item": {
          "reference": "urn:uuid:1c6d20cf-1ba8-405b-b9ad-6280a4a4c9c9"
        }
      }, {
        "item": {
          "reference": "urn:uuid:ea568a28-d1f0-4baa-b952-7377cb44ab86"
        }
      }, {
        "item": {
          "reference": "urn:uuid:408f20eb-4107-4166-863a-75dd0e290eab"
        }
      }, {
        "item": {
          "reference": "urn:uuid:41306b9f-dcac-474c-811c-981e66f9b319"
        }
      }, {
        "item": {
          "reference": "urn:uuid:248394ea-8521-4c27-8e06-cbb41e1b969d"
        }
      }, {
        "item": {
          "reference": "urn:uuid:b0954f3a-18a7-4f7e-9945-57d932b013be"
        }
      }, {
        "item": {
          "reference": "urn:uuid:b3d040de-0e73-4161-976a-19ad7bb6f7b3"
        }
      } ]
    }
  } ]
}